timestamp,ax,ay,az
0,-0.2241,-0.077,0.1663
20,-0.4171,0.1046,-0.0925
40,-1.5189,0.3707,-0.3903
60,-1.0494,-0.1183,-0.2855
80,-2.0787,0.1821,0.7006
100,-0.8459,0.1478,0.1936
120,-0.6892,-0.0065,0.0699
140,-0.8954,0.022,0.1775
160,-0.7729,0.1616,0.1918
180,-0.7906,0.0583,0.2937
200,-0.9939,0.021,0.1284
220,-0.9252,0.0778,-0.0959
240,-0.9845,-0.1241,0.0494
260,-1.1354,-0.3286,0.1
280,-1.1509,0.1858,0.78
300,-1.5352,0.4016,0.4149
320,-1.5997,0.3092,-0.1454
340,-0.7878,0.083,-0.0785
360,-0.5139,-0.0317,0.0868
380,-0.3854,0.0322,0.1537
400,-0.6105,0.3245,-0.282
420,-1.499,0.2572,-0.1066
440,-1.0709,0.3572,-0.2001
460,-1.4669,-0.1796,0.58
480,-0.9381,-0.0649,0.2264
500,-1.0325,-0.1216,0.4545
520,-0.9788,-0.097,0.3427
540,-0.95,0.0441,0.1685
560,-0.9777,0.0782,0.2369
580,-0.9597,0.0796,0.0831
600,-0.9351,-0.0345,0.1045
620,-0.9282,0.1282,0.0774
640,-1.0435,0.066,0.1575
660,-0.8907,0.0688,0.2729
680,-0.9402,0.0342,0.2308
700,-0.9835,0.0887,0.1635
720,-1.002,0.0347,0.0885
740,-0.9601,0.0778,0.2671
760,-0.9469,0.0758,0.2113
780,-0.9603,0.0653,0.1737
800,-1.0027,0.094,0.0637
820,-1.0273,0.0897,0.0731
840,-1.0013,0.0479,0.1803
860,-0.9619,0.0845,0.1931
880,-0.9561,0.0696,0.1776
900,-0.9679,0.0919,0.1486
920,-0.9884,0.0667,0.0961
940,-1.0106,0.0774,0.084
960,-1.0004,0.0745,0.0977
980,-0.9829,0.0896,0.1555
1000,-0.9557,0.0942,0.1593
1020,-0.986,0.0969,0.1235
1040,-0.9913,0.0853,0.1204
1060,-0.9889,0.0771,0.0876
1080,-0.9917,0.1105,0.1272
1100,-0.9706,0.1068,0.1459
1120,-0.9821,0.1,0.1473
1140,-0.9811,0.0851,0.1082
1160,-0.9883,0.0886,0.1304
1180,-0.979,0.1022,0.1125
1200,-0.9758,0.1051,0.1434
1220,-0.9727,0.1232,0.1508
1240,-0.9701,0.1246,0.1548
1260,-0.9774,0.1033,0.1312
1280,-0.989,0.1068,0.1426
1300,-0.9874,0.113,0.1532
1320,-0.9615,0.1139,0.1342
1340,-0.9889,0.121,0.137
1360,-0.9791,0.1261,0.1786
1380,-0.9674,0.1111,0.1871
1400,-0.9756,0.1088,0.1238
1420,-0.9889,0.1161,0.1257
1440,-0.9764,0.1179,0.1423
1460,-0.9744,0.1173,0.1594
1480,-0.9744,0.1188,0.1798
1500,-0.9628,0.1316,0.1641
1520,-0.9764,0.1193,0.1257
1540,-0.975,0.1243,0.1448
1560,-0.9677,0.1287,0.1761
1580,-0.9662,0.111,0.1698
1600,-0.9817,0.1193,0.145
1620,-0.9777,0.1152,0.1349
1640,-0.9629,0.1227,0.1682
1660,-0.981,0.1201,0.1805
1680,-0.9707,0.1123,0.1753
1700,-0.9844,0.1292,0.1481
1720,-0.989,0.1132,0.158
1740,-0.981,0.1241,0.2186
1760,-0.9375,0.0701,0.1786
1780,-0.942,0.0724,0.1707
1800,-1.0237,0.0349,0.2775
1820,-0.9951,0.0181,0.1925
1840,-0.9556,0.0156,0.1495
1860,-1.0039,-0.0074,0.1219
1880,-0.996,0.0063,0.0963
1900,-1.0142,-0.0048,-0.0551
1920,-0.9709,0.0084,0.1749
1940,-0.9495,0.0234,0.1644
1960,-0.9739,0.0245,0.1041
1980,-0.9891,0.017,0.0465
2000,-0.9795,0.0084,0.0897
2020,-0.9724,-0.0096,0.1847
2040,-1.1129,-0.0237,0.1702
2060,-1.1443,-0.0664,0.1418
2080,-1.1079,-0.0062,0.1757
2100,-0.9053,0.1868,0.3765
2120,-0.9573,0.1581,0.1241
2140,-1.0443,-0.0498,0.0703
2160,-1.1383,-0.0024,-0.0441
2180,-0.9231,0.0286,-0.0034
2200,-0.7916,0.0953,-0.0331
2220,-0.75,0.0865,-0.0593
2240,-0.8024,0.1726,-0.2189
2260,-1.0186,0.1693,-0.4253
2280,-1.1517,0.2295,-0.1849
2300,-1.5074,0.4906,0.189
2320,-0.989,0.042,0.1639
2340,-0.731,0.0244,0.1019
2360,-1.1169,-0.0422,0.1466
2380,-0.8247,0.0638,0.08
2400,-0.749,0.0428,0.375
2420,-0.8425,0.0734,0.3008
2440,-0.9749,0.0068,0.0249
2460,-0.9324,0.0513,0.1698
2480,-0.9762,0.1226,0.0612
2500,-1.0247,-0.0106,0.0127
2520,-1.1865,0.1165,0.2404
2540,-1.4247,-0.1396,0.1713
2560,-0.7001,0.054,0.5149
2580,-1.2421,0.2076,0.5393
2600,-1.2859,0.0609,-0.0988
2620,-0.8395,0.054,-0.0231
2640,-0.7845,-0.0587,0.0081
2660,-0.5865,-0.0106,0.0558
2680,-0.6649,0.1812,-0.1803
2700,-1.1322,0.2289,-0.4327
2720,-1.5325,0.2871,-0.0793
2740,-1.4048,0.439,0.3143
2760,-0.66,-0.047,0.3645
2780,-0.7672,-0.0751,0.4169
2800,-0.9989,0.0161,-0.0571
2820,-0.7185,0.0872,0.3361
2840,-0.724,-0.0007,0.3027
2860,-0.8634,-0.0084,0.2474
2880,-0.9366,0.0994,0.0876
2900,-1.0035,0.1372,-0.0767
2920,-1.2181,-0.0234,-0.1122
2940,-1.0862,-0.142,0.4796
2960,-1.3876,0.446,0.8057
2980,-1.4044,-0.0778,0.4069
3000,-1.3893,0.1927,-0.1635
3020,-0.6892,-0.0411,-0.1176
3040,-0.2686,0.0184,0.1978
3060,-0.3613,0.1821,0.0055
3080,-1.2125,0.1436,-0.4888
3100,-1.5659,0.1956,-0.1576
3120,-2.145,0.4189,0.2488
3140,-0.6276,-0.0204,0.0739
3160,-0.7692,-0.0103,-0.173
3180,-1.0339,-0.0507,-0.1099
3200,-0.8995,0.2135,0.1281
3220,-0.5496,-0.1481,0.3784
3240,-0.8561,0.1058,0.4601
3260,-0.9634,0.1615,-0.0342
3280,-1.3237,-0.053,-0.2697
3300,-1.525,-0.3109,-0.225
3320,-1.2096,0.4822,0.8785
3340,-1.1448,0.037,0.6749
3360,-1.4048,0.3561,-0.0104
3380,-0.6807,-0.1895,-0.2095
3400,-0.1321,-0.0112,0.0103
3420,-0.5492,0.2072,-0.0358
3440,-1.458,0.4508,-0.2776
3460,-1.3344,-0.0935,-0.369
3480,-1.9473,0.481,1.0098
3500,-0.5535,0.1426,0.3777
3520,-0.6899,-0.1071,0.0253
3540,-0.5879,-0.048,0.3979
3560,-0.6138,-0.0068,0.2025
3580,-0.9381,0.2129,0.3063
3600,-1.0559,0.0854,0.0544
3620,-1.2336,0.0533,-0.3573
3640,-1.0837,-0.2208,-0.1536
3660,-1.3992,0.6272,0.8784
3680,-1.4053,0.2076,0.5442
3700,-1.4341,0.2639,-0.4014
3720,-0.7313,-0.0518,-0.2924
3740,0.0054,0.0067,0.1121
3760,-0.3762,0.0657,-0.072
3780,-1.3711,0.089,-0.4636
3800,-1.674,0.4028,0.321
3820,-2.0859,0.1644,0.5377
3840,-0.4218,-0.13,0.1254
3860,-0.8192,0.0035,0.1134
3880,-0.8555,-0.0682,-0.0621
3900,-0.7098,0.0735,0.3085
3920,-0.8054,0.132,0.1989
3940,-0.8741,0.105,0.5402
3960,-1.272,-0.1476,-0.5449
3980,-1.1715,-0.1749,-0.3278
4000,-1.7222,0.2939,1.3755
4020,-1.3325,0.1887,0.8981
4040,-1.299,0.2795,-0.3467
4060,-0.5806,0.0796,-0.1221
4080,-0.0942,-0.1079,-0.0238
4100,-0.422,0.045,-0.2416
4120,-1.6584,0.2948,-0.3805
4140,-0.8619,0.9305,-0.1727
4160,-2.1622,-0.3612,1.5087
4180,-0.5402,-0.1239,0.3097
4200,-0.5543,0.0321,0.3468
4220,-0.8179,-0.0729,0.2269
4240,-0.5157,-0.0261,0.428
4260,-0.6686,0.1636,0.4933
4280,-1.1315,0.1812,0.0347
4300,-1.3879,-0.1493,-1.0138
4320,-1.1472,0.1171,0.2885
4340,-1.8468,0.1665,1.5754
4360,-1.2061,0.2892,0.8762
4380,-0.8552,0.1051,-0.2245
4400,-0.3021,-0.2955,-0.2598
4420,-0.0352,-0.2906,-0.0819
4440,-0.8269,0.3926,-0.4897
4460,-2.1997,0.501,0.7334
4480,-2.1006,0.7173,0.425
4500,-0.1417,-0.2446,0.2832
4520,-1.0332,-0.2974,0.101
4540,-1.1042,0.0392,-0.2888
4560,-0.5498,0.276,0.2963
4580,-0.4301,0.0568,0.397
4600,-1.0936,0.3762,0.6909
4620,-1.269,0.1349,-0.1375
4640,-1.2316,-0.351,-0.8781
4660,-1.0619,0.1345,0.7949
4680,-1.7102,0.4485,1.215
4700,-1.375,0.3727,0.1193
4720,-0.8087,-0.1293,-0.1549
4740,-0.3682,-0.11,-0.1119
4760,-0.1858,-0.1409,-0.1101
4780,-0.7987,0.2258,-0.4841
4800,-1.6996,0.4441,0.2324
4820,-2.2335,0.3203,0.3082
4840,-0.3708,0.071,0.3669
4860,-0.4852,-0.0149,0.0089
4880,-0.9779,-0.1587,-0.2085
4900,-0.524,0.1447,0.3468
4920,-0.7246,0.0719,0.3804
4940,-1.0209,0.0742,0.1454
4960,-1.4305,-0.0829,-0.6293
4980,-1.189,-0.4528,-0.2017
5000,-1.5817,0.4441,1.1095
5020,-1.3622,0.2943,0.8335
5040,-1.3584,0.3004,-0.2406
5060,-0.4181,-0.1543,-0.3027
5080,-0.1093,-0.085,0.0088
5100,-0.449,0.1725,-0.3057
5120,-1.6533,0.1798,-0.4503
5140,-1.1556,0.6505,-0.126
5160,-1.7166,-0.5513,1.2511
5180,-0.342,-0.1158,0.4154
5200,-0.9493,-0.0367,0.2332
5220,-0.8567,-0.0103,0.1211
5240,-0.6111,-0.1554,0.1212
5260,-0.9399,0.2898,0.4926
5280,-1.1163,0.1218,-0.0582
5300,-1.2424,-0.082,-0.6724
5320,-1.0966,0.052,0.0538
5340,-1.754,0.1191,1.4127
5360,-1.1981,0.3087,0.7379
5380,-1.1755,0.47,-0.0431
5400,-0.4574,-0.051,-0.2263
5420,-0.1556,-0.1121,0.0245
5440,-0.5116,0.2534,-0.2147
5460,-1.6522,0.0364,-0.2887
5480,-0.9943,0.8633,-0.1588
5500,-1.9325,-0.3773,1.4208
5520,-0.5033,-0.2367,0.2633
5540,-0.6993,-0.0574,-0.174
5560,-0.8242,0.2885,0.5662
5580,-0.4952,0.0347,0.3187
5600,-0.9777,0.1366,0.2106
5620,-1.0194,0.1167,-0.0828
5640,-1.3322,-0.0576,-0.3478
5660,-1.1549,-0.1877,-0.3615
5680,-1.6364,0.2816,1.1317
5700,-1.3684,0.2494,0.6703
5720,-1.188,0.3273,-0.1713
5740,-0.5835,-0.0612,-0.3253
5760,0.1212,-0.2939,-0.1775
5780,-0.3936,0.1412,-0.3872
5800,-2.2795,0.4672,0.1488
5820,-0.7308,0.2358,-0.4139
5840,-3.3701,0.5562,1.4915
5860,-0.6588,-0.0582,0.1696
5880,-0.4568,-0.0266,0.0007
5900,-0.8545,0.1664,0.1829
5920,-0.4662,0.067,0.3444
5940,-0.7679,0.0881,0.2445
5960,-1.1627,0.1617,-0.1639
5980,-1.2213,-0.0586,-0.7024
6000,-1.208,-0.5781,-0.3135
6020,-1.6709,0.4221,1.2313
6040,-1.3704,0.2585,0.9443
6060,-1.4146,0.2598,-0.3402
6080,-0.5924,-0.0632,-0.327
6100,-0.1219,-0.0236,0.0531
6120,-0.3877,0.1,-0.0826
6140,-1.3383,0.2432,-0.5667
6160,-1.6632,0.3226,0.2756
6180,-2.2965,0.2886,0.9952
6200,-0.6969,0.3099,0.3069
6220,-0.709,-0.0988,-0.1298
6240,-0.7621,-0.1316,0.0042
6260,-0.6216,0.2593,0.2134
6280,-0.8445,0.1361,0.3971
6300,-1.0417,0.1053,-0.0516
6320,-1.2361,0.0529,-0.583
6340,-1.4387,-0.2999,-0.2505
6360,-1.2722,0.4393,0.635
6380,-1.1909,0.1984,0.9636
6400,-1.4542,0.3296,0.1493
6420,-0.7544,-0.079,-0.2068
6440,-0.1165,-0.0131,-0.0825
6460,-0.0759,-0.1519,-0.0664
6480,-1.2083,0.2563,-0.6631
6500,-1.4889,0.4164,0.0896
6520,-2.1617,0.4751,0.3264
6540,-0.7284,-0.0215,0.3745
6560,-0.5347,-0.0519,0.1167
6580,-0.9149,-0.2799,-0.2312
6600,-0.653,0.0089,0.0649
6620,-0.6444,0.049,0.3533
6640,-0.9854,0.1604,0.2502
6660,-1.1311,-0.0105,-0.374
6680,-1.3226,-0.2766,-0.4121
6700,-1.2306,0.3519,0.464
6720,-1.2992,0.3636,1.0247
6740,-1.4636,0.1674,-0.0555
6760,-0.8071,0.0027,-0.2722
6780,-0.0635,-0.0197,0.0533
6800,0.0156,-0.1732,-0.0404
6820,-1.1399,0.4188,-0.4845
6840,-1.9796,0.6626,0.2263
6860,-2.2004,0.7271,0.0491
6880,-0.3719,0.1615,0.4832
6900,-1.0417,-0.0922,0.0383
6920,-0.7799,-0.1083,0.0197
6940,-0.6606,-0.0853,0.0935
6960,-0.5563,0.1543,0.3668
6980,-1.0339,0.2208,0.1921
7000,-1.0795,0.1625,-0.1952
7020,-1.2915,-0.0499,-0.3179
7040,-1.2118,0.0247,0.5769
7060,-1.6526,0.2632,1.095
7080,-1.2104,0.0194,0.3223
7100,-1.0677,-0.0422,-0.2339
7120,-0.4208,-0.089,-0.2755
7140,0.0793,-0.0291,0.0872
7160,-0.7983,0.3176,-0.5574
7180,-2.2266,0.4604,0.2499
7200,-1.4778,0.1986,0.4117
7220,-0.4431,-0.2603,1.0005
7240,-0.7677,-0.1322,0.0182
7260,-0.7634,-0.0214,0.0741
7280,-0.6993,0.0533,0.2994
7300,-0.5115,0.0377,0.4528
7320,-0.9729,0.2059,0.2316
7340,-1.1055,0.1052,-0.213
7360,-1.1796,-0.1031,-0.4207
7380,-1.4111,-0.0508,0.1674
7400,-1.7589,0.3973,1.3718
7420,-1.1249,0.165,0.4144
7440,-1.1934,0.2821,-0.0005
7460,-0.376,-0.1497,-0.1918
7480,-0.0403,-0.0094,0.0109
7500,-0.2235,0.0527,-0.306
7520,-2.8893,0.4561,-0.3719
7540,-1.0183,0.9801,0.0281
7560,-0.7635,0.3046,0.9796
7580,-0.6343,-0.3285,0.2498
7600,-0.6324,-0.0668,0.1572
7620,-0.6826,0.1974,0.1893
7640,-0.6011,0.0643,0.2217
7660,-0.9152,0.1465,0.2758
7680,-1.0079,0.2922,-0.0936
7700,-1.2229,-0.0547,-0.6637
7720,-1.2694,0.2894,0.3965
7740,-1.827,0.1842,1.3073
7760,-1.3513,0.2102,0.4762
7780,-1.0737,-0.0507,-0.3049
7800,-0.1895,-0.2068,-0.1519
7820,-0.0107,-0.0614,-0.0188
7840,-0.736,0.3213,-0.5533
7860,-2.229,0.3075,-0.2112
7880,-0.9758,0.4485,0.1132
7900,-1.1145,0.0737,1.0898
7920,-0.7639,-0.2758,0.0658
7940,-0.6813,0.0448,0.1764
7960,-0.6873,0.0449,-0.0582
7980,-0.4316,0.04,0.3762
8000,-0.8979,0.3335,0.4473
8020,-1.0188,0.0437,-0.1421
8040,-1.2174,-0.0226,-0.4481
8060,-1.3782,-0.2433,-0.0376
8080,-1.4966,0.5507,0.76
8100,-1.1133,0.1924,0.7488
8120,-1.2863,0.4962,-0.1882
8140,-0.5911,-0.1605,-0.2676
8160,-0.0665,-0.043,-0.0388
8180,-0.1478,-0.1038,-0.2264
8200,-1.311,0.1331,-0.5544
8220,-1.537,0.3414,0.2502
8240,-2.1874,0.0266,1.076
8260,-0.3556,0.2521,0.2207
8280,-0.7329,0.1273,0.0916
8300,-1.1752,0.1157,0.1802
8320,-0.6918,0.1598,0.3014
8340,-0.5588,-0.0116,0.3145
8360,-0.8815,0.1385,0.1871
8380,-1.04,0.0862,-0.3169
8400,-1.1726,-0.0802,-0.4778
8420,-1.2493,-0.0183,0.188
8440,-1.8466,0.4707,0.9487
8460,-1.282,0.2061,0.8007
8480,-1.3346,0.0314,-0.4109
8500,-0.598,-0.1558,-0.2714
8520,0.0859,-0.1282,-0.0621
8540,-0.567,0.1405,-0.1626
8560,-1.6257,0.3395,-0.1854
8580,-1.0256,0.2228,-0.3153
8600,-2.4366,0.062,1.113
8620,-0.6031,-0.1425,0.2622
8640,-0.5847,0.0568,0.3229
8660,-0.7582,-0.0426,0.1165
8680,-0.6019,0.1858,0.4025
8700,-0.7863,0.03,0.1814
8720,-1.1173,0.0403,-0.1741
8740,-1.0604,0.1028,-0.1561
8760,-1.2352,-0.3588,-0.0676
8780,-1.2181,0.5399,0.3344
8800,-1.2753,0.3566,1.1139
8820,-1.3441,0.3982,-0.1831
8840,-1.0267,-0.1289,-0.2371
8860,-0.1964,-0.1353,-0.04
8880,-0.1033,-0.0352,-0.0006
8900,-0.8315,0.2521,-0.6556
8920,-1.9565,0.3953,0.0393
8940,-1.0303,0.7466,0.3055
8960,-0.9558,-0.21,0.6029
8980,-0.6639,-0.1256,0.1146
9000,-0.9183,0.0089,-0.0447
9020,-0.8782,0.226,0.204
9040,-0.653,-0.0552,0.3483
9060,-0.8311,0.1036,0.1646
9080,-0.9939,0.1742,-0.1356
9100,-1.1777,0.0114,-0.5023
9120,-1.2548,-0.5226,-0.119
9140,-1.2958,0.2933,0.8447
9160,-1.4523,0.1147,0.6667
9180,-1.6542,0.2711,-0.1654
9200,-0.6588,-0.0065,-0.1613
9220,-0.2234,-0.0255,-0.0424
9240,-0.0947,-0.0356,0.0006
9260,-1.0414,0.2675,-0.4644
9280,-1.854,0.6229,0.2046
9300,-1.0181,-0.0133,0.0188
9320,-1.1583,0.1818,0.6796
9340,-0.9063,-0.3116,0.0786
9360,-0.8811,-0.2173,0.0039
9380,-0.8298,0.2047,0.1023
9400,-0.6791,0.2054,0.2299
9420,-0.8513,0.1428,0.1028
9440,-1.1505,0.2203,-0.1185
9460,-0.9252,-0.0356,-0.3881
9480,-1.0643,-0.1515,0.0128
9500,-0.9583,-0.0667,0.4775
9520,-1.5698,0.0458,0.8691
9540,-1.5544,0.2115,0.2261
9560,-1.1921,-0.032,-0.3292
9580,-0.5282,-0.3036,-0.0343
9600,-0.1675,-0.0975,0.2704
9620,-0.6066,0.1865,0.0764
9640,-1.2751,0.1874,-0.0275
9660,-1.1335,-0.2954,-0.314
9680,-1.3235,-0.2203,-0.0653
9700,-1.4431,-0.0966,0.0721
9720,-0.2124,0.1232,0.4773
9740,-1.2194,-0.2827,0.5864
9760,-0.8793,-0.0126,0.3544
9780,-0.6134,0.1094,0.1731
9800,-0.6644,0.0859,0.3853
9820,-0.9979,0.1501,0.1898
9840,-1.3057,0.0223,0.0269
9860,-1.4282,-0.0333,-0.2506
9880,-1.1509,-0.2312,0.6522
9900,-1.2794,0.4021,0.51
9920,-1.5219,0.2997,0.436
9940,-0.9362,-0.0219,-0.1613
9960,-0.3857,-0.2102,-0.0894
