timestamp,ax,ay,az
0,-0.7241,0.052,0.0298
20,-0.5585,-0.0326,0.0898
40,-0.6536,0.0762,-0.0304
60,-0.8507,0.2649,-0.2438
80,-1.4972,0.1595,-0.292
100,-1.0038,0.1311,-0.3733
120,-1.3191,0.2581,0.3754
140,-0.9031,-0.2449,0.0732
160,-0.7893,-0.0254,0.2399
180,-1.2036,-0.0665,-0.0625
200,-0.8405,0.0464,0.295
220,-0.9165,0.0798,0.2815
240,-0.936,0.0261,0.0886
260,-0.9613,0.1017,0.0219
280,-0.903,0.0542,-0.1064
300,-0.9736,-0.0222,0.058
320,-1.1066,0.0128,0.2162
340,-1.0969,-0.0464,0.2565
360,-1.2068,0.0725,0.3273
380,-1.356,0.2312,-0.1302
400,-0.941,-0.0527,-0.142
420,-0.7238,0.022,0.0283
440,-0.7491,0.1007,-0.0618
460,-0.8535,0.1044,-0.1637
480,-1.0195,-0.0341,-0.2571
500,-1.1718,0.1984,-0.0193
520,-1.2168,0.236,0.2788
540,-0.938,0.0082,0.3168
560,-0.9248,-0.0657,-0.0658
580,-0.9333,-0.2289,0.0479
600,-1.1154,-0.0293,0.1431
620,-0.9149,-0.0411,0.0778
640,-0.9098,-0.0381,0.1219
660,-1.0336,0.0468,0.1123
680,-0.9697,-0.0071,0.1232
700,-1.0073,0.0367,0.287
720,-0.903,0.0586,0.1646
740,-1.0226,0.05,-0.082
760,-1.0062,0.041,0.13
780,-0.9575,0.0864,0.3961
800,-0.9655,0.1199,0.3905
820,-0.9644,0.089,0.2587
840,-0.9855,0.0701,0.1846
860,-0.9545,0.0742,0.1782
880,-0.9696,0.0768,0.1439
900,-0.9994,0.0623,0.1616
920,-0.9824,0.0702,0.1289
940,-0.9611,0.0947,0.1675
960,-0.9714,0.0808,0.2009
980,-0.9906,0.0721,0.1843
1000,-0.9768,0.0834,0.1923
1020,-0.9716,0.0952,0.1469
1040,-0.9812,0.0906,0.1389
1060,-0.9889,0.0719,0.1339
1080,-0.9744,0.0768,0.1151
1100,-0.9822,0.0741,0.1266
1120,-0.9733,0.0845,0.1344
1140,-0.981,0.0776,0.1328
1160,-0.984,0.0817,0.1613
1180,-0.9843,0.0836,0.162
1200,-0.9802,0.0812,0.1659
1220,-0.9813,0.0817,0.1465
1240,-0.9836,0.0767,0.1465
1260,-0.9783,0.0773,0.1443
1280,-0.9795,0.0764,0.1499
1300,-0.9854,0.0688,0.1428
1320,-0.9758,0.0747,0.1821
1340,-0.9397,0.0718,0.1814
1360,-0.991,0.0784,0.1417
1380,-1.0031,0.0736,0.0394
1400,-1.0042,0.0844,0.037
1420,-0.9482,-0.0552,0.0814
1440,-0.973,-0.0404,0.0475
1460,-0.9865,0.0894,0.1597
1480,-1.0234,0.0652,0.1349
1500,-0.9789,0.0369,0.0215
1520,-0.967,0.0068,-0.0162
1540,-1.0447,-0.0173,0.0146
1560,-1.0135,0.0021,-0.0142
1580,-1.0391,-0.0488,-0.0291
1600,-1.2756,-0.0874,0.1323
1620,-1.198,0.1002,0.4696
1640,-0.7052,-0.0076,0.313
1660,-1.1093,0.1528,0.0361
1680,-1.1799,0.033,0.2213
1700,-0.9889,-0.0033,-0.1287
1720,-0.7947,0.0431,-0.0455
1740,-0.9666,0.0024,-0.0975
1760,-0.7905,0.1324,-0.1097
1780,-1.0088,0.1896,-0.2277
1800,-1.1599,0.1884,-0.2155
1820,-1.1498,0.2048,-0.2814
1840,-1.2755,0.3141,0.0514
1860,-0.7576,0.0394,-0.0094
1880,-0.9767,-0.1317,0.2168
1900,-0.9906,0.153,0.08
1920,-0.8423,0.0215,0.1095
1940,-0.8689,0.0875,0.0955
1960,-0.9082,-0.0509,0.1464
1980,-0.9408,0.0459,0.2369
2000,-0.9539,0.0387,0.1503
2020,-1.0,0.0586,0.0203
2040,-1.1643,-0.0464,-0.2899
2060,-1.2747,-0.036,-0.0604
2080,-0.9774,0.2018,0.3616
2100,-1.314,0.2072,0.6254
2120,-0.9889,0.0255,0.0668
2140,-0.9321,-0.0006,-0.1539
2160,-0.7588,0.0647,-0.1802
2180,-0.6456,-0.0109,0.0205
2200,-0.7427,0.1475,-0.1415
2220,-1.0725,0.2548,-0.2974
2240,-1.2498,0.2882,-0.1552
2260,-0.8524,0.3215,-0.276
2280,-1.5541,0.1166,0.3895
2300,-0.7522,-0.0873,0.0354
2320,-0.8528,-0.1046,0.3069
2340,-0.951,0.0743,0.1145
2360,-0.8721,0.0118,0.0452
2380,-0.8695,0.0505,0.0714
2400,-0.9054,0.0529,0.0831
2420,-0.9426,0.0607,0.0807
2440,-0.9822,0.126,0.1034
2460,-0.9801,-0.0432,-0.0258
2480,-1.0503,-0.0072,-0.105
2500,-1.4624,-0.079,0.1139
2520,-0.9926,0.1106,0.2301
2540,-1.0591,0.3136,0.1859
2560,-1.1198,-0.0116,-0.0492
2580,-0.9766,-0.0756,-0.1396
2600,-0.7631,0.0624,-0.0197
2620,-0.696,0.0592,0.0706
2640,-0.6724,0.0344,-0.0573
2660,-1.0735,0.3356,-0.3848
2680,-1.4336,0.1254,-0.1183
2700,-0.7325,0.2706,-0.3759
2720,-1.5596,0.1992,0.3602
2740,-0.8528,-0.0029,0.101
2760,-0.8016,-0.0348,0.1995
2780,-0.9598,0.047,0.1133
2800,-0.8157,0.016,0.0121
2820,-0.8467,0.0394,0.1014
2840,-0.965,0.0969,0.0826
2860,-0.9127,0.0607,0.1317
2880,-0.9355,0.1116,0.1611
2900,-0.9846,-0.0881,-0.0405
2920,-1.1586,0.02,-0.1887
2940,-1.2498,-0.14,0.0812
2960,-1.0436,0.1278,0.3591
2980,-1.3105,0.2037,0.4756
3000,-1.1152,-0.1146,-0.0493
3020,-0.8777,-0.0415,-0.1467
3040,-0.7413,0.0555,-0.01
3060,-0.6316,0.0236,-0.0002
3080,-0.7006,0.0696,-0.2719
3100,-1.1512,0.2574,-0.3647
3120,-1.4283,0.3358,-0.1028
3140,-0.8805,0.4757,-0.123
3160,-1.5857,0.3519,0.3
3180,-0.6788,-0.1215,0.1047
3200,-0.983,-0.1226,0.2236
3220,-0.9108,0.1355,0.1138
3240,-0.8092,0.0398,0.1769
3260,-0.8862,0.0758,0.1154
3280,-0.912,0.0646,-0.068
3300,-0.895,0.0862,0.1367
3320,-0.9373,0.1196,0.0437
3340,-1.0253,-0.0911,-0.1184
3360,-1.2375,-0.0746,0.0371
3380,-1.3333,0.0859,0.1094
3400,-0.9456,0.0699,0.3323
3420,-1.1614,-0.1047,0.3508
3440,-1.142,0.1918,-0.1451
3460,-0.7976,-0.0518,-0.1458
3480,-0.692,0.088,0.0099
3500,-0.6288,-0.0214,-0.0859
3520,-0.6925,0.1147,-0.2529
3540,-1.2585,0.2373,-0.2665
3560,-1.08,-0.2296,-0.4568
3580,-1.8683,0.4099,-0.0114
3600,-0.9585,0.2537,0.245
3620,-0.5225,-0.063,0.2659
3640,-1.0536,0.0121,0.2302
3660,-0.9163,0.0847,-0.2281
3680,-0.7581,-0.0106,0.2067
3700,-0.8859,0.038,0.158
3720,-0.9374,0.0752,-0.0083
3740,-0.9269,0.1283,0.0851
3760,-1.0166,-0.0128,0.0201
3780,-1.1118,-0.0317,-0.1776
3800,-1.3119,-0.1353,0.1406
3820,-1.0516,0.1119,0.379
3840,-1.3364,0.2296,0.5051
3860,-1.0792,-0.0562,-0.2863
3880,-0.8025,-0.0035,-0.0952
3900,-0.7867,-0.0275,-0.0533
3920,-0.6948,-0.0206,0.0288
3940,-0.6879,0.1088,-0.222
3960,-1.1021,0.1064,-0.3125
3980,-1.3685,0.2283,-0.3412
4000,-1.1316,0.5851,-0.131
4020,-1.3269,0.2653,0.3787
4040,-0.6926,-0.2018,0.1259
4060,-0.8917,-0.0471,0.2914
4080,-0.9408,0.1097,0.1307
4100,-0.7324,0.0006,0.3208
4120,-0.9277,0.0845,0.1801
4140,-0.9663,0.0721,0.0403
4160,-0.9049,0.0953,0.0382
4180,-0.9729,0.0061,-0.1633
4200,-1.1047,-0.0277,-0.2142
4220,-1.2455,-0.0327,-0.1429
4240,-1.2861,-0.0575,0.7174
4260,-1.1924,0.1859,0.4583
4280,-1.1547,-0.0081,-0.2211
4300,-1.1177,0.1138,-0.0704
4320,-0.6814,0.0135,-0.1116
4340,-0.6097,-0.0234,-0.0341
4360,-0.6588,0.0396,-0.0582
4380,-0.8809,0.1255,-0.4008
4400,-1.6775,0.0381,-0.3622
4420,-1.3398,0.1776,-0.4932
4440,-0.9724,0.1353,0.3054
4460,-0.6,-0.2196,0.2747
4480,-0.7446,0.0691,0.2472
4500,-1.0272,-0.0824,-0.0839
4520,-0.7684,-0.0505,0.0491
4540,-0.8853,0.0052,0.0421
4560,-1.0077,0.0453,0.0066
4580,-0.8588,0.1388,-0.047
4600,-0.9584,0.0267,0.0492
4620,-1.0874,-0.0236,-0.0502
4640,-1.095,0.0103,-0.0181
4660,-1.27,-0.0481,-0.1405
4680,-1.0665,0.0889,0.2668
4700,-1.3225,0.2438,0.3293
4720,-1.2024,0.1478,-0.1646
4740,-0.8264,-0.0771,-0.043
4760,-0.6068,0.04,0.083
4780,-0.5601,-0.0131,0.0015
4800,-0.8373,0.285,-0.4215
4820,-1.4438,0.1418,-0.3823
4840,-1.1244,0.1155,-0.2594
4860,-1.6427,0.1481,-0.0327
4880,-1.1254,-0.0214,0.285
4900,-0.6533,0.0789,0.1768
4920,-1.1285,-0.093,0.1537
4940,-0.9318,0.1443,-0.0977
4960,-0.765,0.0265,0.1284
4980,-0.9652,0.0873,0.1458
5000,-0.9292,0.0686,-0.0614
5020,-0.9366,0.1294,-0.0546
5040,-0.9907,-0.0404,-0.1073
5060,-1.2015,-0.0553,-0.1202
5080,-1.1282,-0.1777,0.3884
5100,-1.0336,0.2814,0.4426
5120,-1.4781,0.1276,0.4528
5140,-1.4294,0.1808,-0.1803
5160,-0.7241,0.0487,-0.0891
5180,-0.6211,0.1736,0.0448
5200,-0.5577,-0.0159,0.0168
5220,-0.8063,0.1782,-0.3419
5240,-1.3318,0.2867,-0.2114
5260,-0.9141,0.0049,-0.2896
5280,-1.541,0.1281,0.2917
5300,-0.925,-0.089,0.1696
5320,-0.7765,-0.0242,0.1625
5340,-0.9232,-0.0897,0.1395
5360,-0.8024,0.0941,0.2863
5380,-0.825,0.0255,0.2324
5400,-0.9811,0.0502,-0.0068
5420,-0.9674,0.0399,-0.0267
5440,-0.9574,0.1194,0.0576
5460,-1.0188,-0.075,-0.1549
5480,-1.2018,-0.0364,-0.1552
5500,-1.2897,-0.1188,0.267
5520,-0.8976,0.1165,0.4937
5540,-1.2725,0.0662,0.4398
5560,-1.4539,0.2555,-0.042
5580,-0.7583,-0.0404,-0.0847
5600,-0.6226,-0.015,-0.0005
5620,-0.6398,0.0262,-0.0179
5640,-0.6791,0.2018,-0.3562
5660,-1.5546,0.1326,-0.4651
5680,-1.0284,-0.0695,-0.3479
5700,-1.8953,0.1276,0.2688
5720,-0.8773,-0.0919,0.2465
5740,-0.601,0.1205,0.3857
5760,-1.1534,0.0215,0.2749
5780,-0.9055,0.135,0.0406
5800,-0.7711,-0.0585,0.0743
5820,-0.993,0.1241,0.1503
5840,-0.9183,0.0836,0.0387
5860,-0.9576,0.1365,-0.1084
5880,-1.0581,-0.0912,-0.3142
5900,-1.2101,-0.2327,-0.0751
5920,-1.1674,0.2396,0.2588
5940,-1.3319,0.1382,0.5254
5960,-1.219,0.0659,0.3938
5980,-0.9958,0.1957,-0.0211
6000,-0.7587,0.0444,0.0471
6020,-0.662,-0.0043,0.0624
6040,-0.6105,0.0503,-0.0656
6060,-0.8615,0.2209,-0.3307
6080,-1.504,0.2256,-0.3649
6100,-0.8271,-0.0142,-0.319
6120,-1.6718,0.1921,0.4323
6140,-0.7334,-0.1071,0.2621
6160,-0.8762,-0.0007,0.3119
6180,-1.0317,0.0421,0.1448
6200,-0.7356,0.0814,0.2183
6220,-0.8428,0.0367,0.1593
6240,-1.017,0.1132,0.0756
6260,-0.942,0.041,-0.0823
6280,-0.9274,0.0651,-0.1226
6300,-0.9358,-0.1439,-0.1857
6320,-1.1904,-0.0454,-0.2086
6340,-1.2692,0.1306,0.3623
6360,-0.9626,0.1881,0.3577
6380,-1.4181,0.3053,0.526
6400,-1.1954,0.022,-0.0658
6420,-0.7435,0.0146,-0.1685
6440,-0.7151,0.0072,-0.0541
6460,-0.675,0.0413,-0.1672
6480,-0.7306,0.2366,-0.3804
6500,-1.3605,0.3235,-0.0518
6520,-1.1666,0.3606,-0.0989
6540,-1.4613,0.0193,0.4156
6560,-0.4448,-0.0596,0.1127
6580,-1.0529,-0.0619,0.39
6600,-0.9674,0.1494,0.1199
6620,-0.9028,0.0916,0.1387
6640,-0.8733,0.0117,-0.0406
6660,-1.0249,0.0508,-0.1036
6680,-0.8904,0.1152,0.0511
6700,-0.9381,0.131,0.106
6720,-0.9506,-0.0343,-0.119
6740,-1.1555,-0.0918,0.1002
6760,-1.296,-0.0933,0.2205
6780,-1.004,0.0836,0.1937
6800,-1.2655,-0.0103,0.5494
6820,-1.2622,0.1174,0.0022
6840,-0.7667,0.088,-0.0359
6860,-0.6643,0.0245,0.0441
6880,-0.5773,0.0469,0.0033
6900,-0.7397,0.1997,-0.3724
6920,-1.4346,0.197,-0.2916
6940,-1.005,0.2104,-0.0933
6960,-1.6412,0.0118,0.4797
6980,-0.7048,-0.1716,0.2106
7000,-0.8739,-0.024,0.2019
7020,-0.8381,0.1425,0.3088
7040,-0.9038,0.1447,0.2273
7060,-0.8385,0.0197,0.2277
7080,-0.9893,0.0872,0.0048
7100,-0.8948,0.0171,-0.0199
7120,-0.9677,0.1312,0.0051
7140,-0.9839,-0.022,-0.0717
7160,-1.1954,-0.0599,-0.1464
7180,-1.1985,-0.1465,0.2539
7200,-1.0524,0.2452,0.5984
7220,-1.2445,0.0267,0.5144
7240,-1.2141,0.1982,-0.1959
7260,-0.8003,-0.0671,0.0125
7280,-0.6899,0.0055,0.0332
7300,-0.674,-0.0118,0.0219
7320,-0.6714,0.1648,-0.2356
7340,-1.2198,0.0636,-0.2521
7360,-1.0873,0.0531,-0.1985
7380,-1.8469,0.5875,0.2134
7400,-1.192,0.2531,0.2659
7420,-0.3789,-0.1451,0.2046
7440,-1.1106,-0.0266,0.2683
7460,-0.9576,0.1206,-0.0636
7480,-0.7892,0.0193,0.053
7500,-1.0199,-0.0089,0.028
7520,-0.9434,0.0789,0.0472
7540,-0.9264,0.1216,0.0254
7560,-0.9766,0.0487,0.0096
7580,-1.0851,-0.0493,-0.2793
7600,-1.2612,-0.0072,-0.1738
7620,-1.1119,0.1683,0.4792
7640,-1.3243,0.1519,0.3644
7660,-1.198,0.0117,0.0846
7680,-0.6819,-0.0293,0.0092
7700,-0.6871,0.0386,-0.057
7720,-0.7305,-0.0085,0.0037
7740,-0.6664,0.1337,-0.2261
7760,-1.1891,0.2061,-0.2909
7780,-1.2593,0.222,-0.1222
7800,-0.7646,0.2217,-0.187
7820,-1.6851,0.3522,0.4331
7840,-0.7616,-0.1122,0.3167
7860,-0.5659,0.0162,0.3092
7880,-1.1865,-0.058,0.23
7900,-0.8285,0.09,0.1141
7920,-0.8145,-0.0208,0.1106
7940,-0.9745,0.0706,0.0813
7960,-0.9192,0.1223,0.027
7980,-0.9603,0.0696,-0.0249
8000,-1.0601,-0.033,-0.1639
8020,-1.1626,-0.0559,-0.1099
8040,-1.1991,0.1031,0.2605
8060,-0.95,0.1736,0.3292
8080,-1.3599,0.1793,0.3447
8100,-1.245,0.038,-0.1613
8120,-0.775,-0.0094,-0.0996
8140,-0.6504,0.0758,0.0714
8160,-0.7545,0.0454,-0.0167
8180,-0.7194,0.2222,-0.2954
8200,-1.4271,0.1858,-0.2114
8220,-1.0592,0.2673,-0.2391
8240,-1.5262,0.5107,0.2601
8260,-1.2162,0.1072,0.3912
8280,-0.4978,-0.1305,0.1195
8300,-0.9729,-0.0869,0.209
8320,-1.0389,0.0486,-0.0571
8340,-0.7607,0.0811,0.228
8360,-0.9229,0.0925,0.0602
8380,-0.9482,0.0391,0.0067
8400,-0.9574,0.1515,-0.0073
8420,-0.9647,-0.0325,-0.1024
8440,-1.0916,-0.0557,-0.2053
8460,-1.3345,0.0701,0.1989
8480,-0.9973,0.1562,0.4592
8500,-1.2281,0.1396,0.3337
8520,-1.342,0.1294,-0.2795
8540,-0.8605,-0.0745,-0.1019
8560,-0.7173,0.0532,-0.0386
8580,-0.7067,-0.0171,0.0453
8600,-0.6515,0.1719,-0.1716
8620,-1.2202,0.1647,-0.2653
8640,-1.3451,0.3176,-0.1132
8660,-1.7134,0.7339,0.064
8680,-1.1669,0.1447,0.2371
8700,-0.5237,-0.2068,0.1378
8720,-1.1161,-0.1306,0.2386
8740,-1.0704,0.1422,-0.0465
8760,-0.7526,0.0463,0.1196
8780,-0.9647,0.0073,0.0477
8800,-1.0166,0.0942,0.0621
8820,-0.9136,0.1289,-0.074
8840,-0.9238,0.0374,-0.0553
8860,-1.0648,-0.0598,-0.0929
8880,-1.29,0.0563,0.0529
8900,-1.1394,0.1066,0.545
8920,-1.114,0.0614,0.4092
8940,-1.2037,0.0173,-0.0253
8960,-0.9939,0.0913,0.0415
8980,-0.8568,0.0945,-0.1417
9000,-0.5675,0.033,-0.0481
9020,-0.5586,0.1141,-0.2266
9040,-1.1522,0.2253,-0.4111
9060,-1.3441,0.3015,-0.0913
9080,-1.1482,0.5881,-0.0387
9100,-1.3849,0.1902,0.4286
9120,-0.5366,-0.1879,0.1792
9140,-0.929,-0.1368,0.3984
9160,-1.0159,0.1873,0.0863
9180,-0.8042,0.0322,0.183
9200,-0.8463,-0.0157,0.1343
9220,-0.9944,0.0571,0.0599
9240,-0.9242,0.0538,-0.0378
9260,-1.0347,0.1179,-0.1346
9280,-0.9524,-0.0873,-0.2111
9300,-1.2013,-0.1975,-0.0859
9320,-1.1172,0.2341,0.3688
9340,-1.0917,0.1129,0.2485
9360,-1.5006,0.1403,0.5557
9380,-1.1268,0.1965,-0.1316
9400,-0.7991,-0.02,-0.0541
9420,-0.5034,-0.0306,0.0908
9440,-0.5994,0.0846,-0.0314
9460,-0.7438,0.2096,-0.2501
9480,-1.5732,0.3226,-0.0681
9500,-0.7598,-0.0901,-0.3055
9520,-1.6885,0.2782,0.4775
9540,-0.8027,-0.1437,0.2178
9560,-0.6957,-0.0052,0.2076
9580,-0.9188,0.1176,0.3987
9600,-0.7988,0.0608,0.2115
9620,-0.851,0.0681,0.2147
9640,-0.9884,0.0554,0.0996
9660,-0.9365,0.0444,0.0497
9680,-0.9235,0.1432,0.1754
9700,-0.9969,-0.0818,-0.0638
9720,-1.1357,-0.0725,-0.1814
9740,-1.203,-0.094,0.1616
9760,-0.941,0.041,0.2733
9780,-1.3214,0.0555,0.4152
9800,-1.311,0.119,-0.2548
9820,-0.8436,-0.046,-0.0974
9840,-0.5562,0.084,0.0111
9860,-0.7102,0.0303,-0.0172
9880,-0.7682,0.2815,-0.0653
