timestamp,ax,ay,az
0,-1.0602,-0.3121,0.1305
20,-1.064,-0.8026,0.0177
40,-0.6686,-1.0548,0.4015
60,-0.9211,-0.4902,0.4142
80,-1.3618,-0.1838,0.2268
100,-0.9084,-0.151,0.1633
120,-0.7231,-0.2621,0.113
140,-0.6482,-0.319,0.1783
160,-0.6157,-0.0824,0.1879
180,-0.9292,0.0281,0.3657
200,-1.2351,-0.3,0.3982
220,-1.0741,-0.1238,0.5289
240,-1.6759,-0.5739,0.3206
260,-0.3668,-0.4043,0.0601
280,-0.67,-0.8197,0.0542
300,-0.9338,-0.4214,0.252
320,-0.7056,-0.386,0.2
340,-0.8385,-0.4169,0.2871
360,-0.8511,-0.4487,0.3165
380,-0.7271,-0.4259,0.2051
400,-0.7681,-0.4537,0.3112
420,-0.9083,-0.3118,0.1718
440,-0.9078,-0.3812,0.214
460,-1.1473,-0.4846,0.1246
480,-0.9113,-0.947,0.3292
500,-0.8236,-0.6838,0.4713
520,-0.9919,-0.5997,-0.0107
540,-1.0155,-0.3131,0.1322
560,-0.7125,-0.264,0.184
580,-0.6481,-0.2931,0.1682
600,-0.6125,-0.1759,0.1766
620,-0.8419,-0.0579,0.2848
640,-1.2421,-0.056,0.3698
660,-1.0443,-0.1068,0.2311
680,-1.3026,-1.35,0.3859
700,-0.7623,-0.3079,0.2288
720,-0.5431,-0.3832,0.1622
740,-0.8889,-0.5818,0.204
760,-0.7867,-0.291,0.1898
780,-0.5999,-0.5859,0.2428
800,-0.6691,-0.5704,0.1874
820,-0.7816,-0.4332,0.2435
840,-0.8179,-0.3945,0.2441
860,-0.8335,-0.3381,0.2708
880,-0.9487,-0.2847,0.1779
900,-1.1071,-0.5182,0.1458
920,-0.809,-0.7571,0.2599
940,-0.906,-0.8682,0.5907
960,-1.0571,-0.7345,0.2625
980,-0.9191,-0.1771,0.1827
1000,-0.6158,-0.3654,0.1219
1020,-0.4778,-0.3704,0.0427
1040,-0.6456,-0.1667,0.203
1060,-0.9197,-0.0042,0.313
1080,-1.5056,-0.2496,0.2075
1100,-0.9371,0.0825,0.474
1120,-1.1371,-1.1239,0.25
1140,-0.7104,-0.4369,0.1583
1160,-0.5436,-0.4846,0.1853
1180,-0.9745,-0.478,0.1659
1200,-0.8577,-0.2495,0.2446
1220,-0.5674,-0.5364,0.1875
1240,-0.7566,-0.5675,0.2393
1260,-0.8278,-0.3516,0.2448
1280,-0.8839,-0.2844,0.3787
1300,-0.8438,-0.3274,0.1487
1320,-1.0267,-0.3381,0.2076
1340,-1.0444,-0.5461,0.1312
1360,-0.8623,-0.8387,0.2136
1380,-0.896,-0.7616,0.5176
1400,-1.0187,-0.6637,0.4263
1420,-0.899,-0.302,0.2017
1440,-0.6708,-0.3141,0.1243
1460,-0.5325,-0.3104,0.0686
1480,-0.549,-0.1361,0.1859
1500,-0.8347,-0.1577,0.3702
1520,-1.4719,-0.246,0.3988
1540,-0.9427,0.1779,0.1711
1560,-1.5752,-1.1184,0.4967
1580,-0.512,-0.1487,-0.0372
1600,-0.559,-0.7159,0.1838
1620,-0.9886,-0.4493,0.2136
1640,-0.6562,-0.2928,0.2434
1660,-0.6758,-0.4386,0.2363
1680,-0.7219,-0.5298,0.2708
1700,-0.7771,-0.4525,0.243
1720,-0.8168,-0.4314,0.2714
1740,-0.9325,-0.2701,0.0676
1760,-1.1012,-0.6332,0.02
1780,-0.9158,-0.7885,0.0255
1800,-0.8458,-0.8331,0.6263
1820,-0.9684,-1.0149,0.054
1840,-1.017,-0.426,0.0741
1860,-0.7189,-0.3282,0.1835
1880,-0.4944,-0.1904,-0.0397
1900,-0.4885,-0.1873,0.1394
1920,-0.8162,-0.0363,0.2665
1940,-1.4247,-0.0771,0.4017
1960,-1.066,0.0605,0.2075
1980,-1.4489,-1.0706,0.5476
2000,-0.7683,-0.1805,0.0026
2020,-0.5552,-0.4409,0.2396
2040,-0.9243,-0.4231,0.1858
2060,-0.8826,-0.2821,0.3552
2080,-0.6798,-0.2283,0.1285
2100,-0.7194,-0.6527,0.1057
2120,-0.7291,-0.5663,0.2498
2140,-0.8336,-0.337,0.386
2160,-0.9583,-0.1624,0.2708
2180,-0.9902,-0.3859,0.2013
2200,-1.0862,-0.8701,0.0189
2220,-0.6945,-0.7061,0.1676
2240,-0.8506,-0.8087,0.5881
2260,-1.147,-0.3416,0.3582
2280,-0.9169,-0.2411,0.2397
2300,-0.6448,-0.2405,0.0857
2320,-0.5851,-0.3003,0.0676
2340,-0.5901,-0.1084,0.1904
2360,-0.9645,0.0637,0.4656
2380,-1.3103,-0.2238,0.3796
2400,-1.1479,0.0327,0.4475
2420,-0.962,-0.756,0.4313
2440,-0.5717,-0.1875,-0.0104
2460,-0.6104,-0.7728,0.2048
2480,-0.9829,-0.4321,0.2158
2500,-0.5942,-0.3577,0.1617
2520,-0.6132,-0.5046,0.3064
2540,-0.7195,-0.535,0.2189
2560,-0.8876,-0.3379,0.2534
2580,-0.9379,-0.3816,0.3466
2600,-1.0154,-0.058,0.1647
2620,-1.0715,-0.5182,0.0038
2640,-0.8052,-0.8337,0.3472
2660,-0.853,-0.8005,0.4907
2680,-1.2108,-0.7305,0.2882
2700,-1.2568,-0.1852,0.4642
2720,-0.6089,-0.29,0.1367
2740,-0.5022,-0.3701,0.1133
2760,-0.5032,-0.1575,0.1298
2780,-0.8522,-0.1252,0.4576
2800,-1.6075,-0.0535,0.2787
2820,-0.9474,0.1561,0.1898
2840,-1.3229,-0.8389,0.4585
2860,-0.6871,-0.4327,0.1455
2880,-0.5129,-0.366,0.1793
2900,-1.0203,-0.5834,0.1212
2920,-0.6799,-0.3375,0.162
2940,-0.5807,-0.6615,0.1427
2960,-0.7733,-0.5724,0.2423
2980,-0.8939,-0.3942,0.1989
3000,-0.8291,-0.3085,0.2827
3020,-0.8828,-0.2729,0.1169
3040,-0.9968,-0.3516,0.1824
3060,-1.1115,-0.6703,0.0316
3080,-0.7487,-0.9857,0.1213
3100,-0.6035,-0.776,0.3861
3120,-1.0146,-0.707,0.4652
3140,-1.0648,-0.3427,0.4786
3160,-0.8621,-0.1074,0.2316
3180,-0.6074,-0.3245,0.108
3200,-0.4713,-0.2333,0.0333
3220,-0.6851,-0.0316,0.3217
3240,-1.354,-0.1257,0.4424
3260,-1.2552,0.0599,0.0477
3280,-1.1641,-0.2932,0.4751
3300,-1.1775,-0.6786,0.3511
3320,-0.6045,-0.4017,0.0834
3340,-0.5903,-0.6348,0.2467
3360,-1.1074,-0.4232,0.1995
3380,-0.6472,-0.3448,0.2729
3400,-0.7332,-0.4792,0.1818
3420,-0.8525,-0.5208,0.2249
3440,-0.8821,-0.3304,0.3287
3460,-0.8422,-0.2156,0.1757
3480,-0.9431,-0.3218,0.1732
3500,-0.998,-0.6536,0.2461
3520,-0.866,-0.9005,0.0555
3540,-0.5856,-0.9027,0.2416
3560,-0.9492,-0.6387,0.4408
3580,-1.0363,-0.4231,0.5308
3600,-0.8826,-0.198,0.276
3620,-0.6698,-0.4991,0.1833
3640,-0.5292,-0.3353,0.1978
3660,-0.7318,-0.0438,0.2335
3680,-1.2552,-0.0088,0.2062
3700,-1.2572,-0.0339,-0.061
3720,-1.3407,-0.4089,0.4911
3740,-1.032,-0.4574,0.3762
3760,-0.4979,-0.2363,0.1312
3780,-0.7418,-0.5587,0.1836
3800,-1.1564,-0.1458,0.2637
3820,-0.5935,-0.4658,0.2177
3840,-0.6986,-0.4973,0.2006
3860,-0.7982,-0.5071,0.2535
3880,-0.8433,-0.3689,0.3508
3900,-0.9044,-0.204,0.2111
3920,-1.0603,-0.2197,0.1943
3940,-0.99,-0.886,0.0481
3960,-0.6985,-0.8694,0.3994
3980,-0.941,-0.8005,0.5791
4000,-1.2106,-0.4899,0.329
4020,-0.7559,-0.1284,0.1404
4040,-0.5695,-0.3674,0.2251
4060,-0.7123,-0.2568,0.1082
4080,-0.7402,-0.0847,0.2731
4100,-1.0975,-0.0565,0.4775
4120,-1.0353,-0.1177,0.3379
4140,-1.0724,0.0563,0.8289
4160,-1.0494,-0.5302,0.4237
4180,-0.697,-0.2487,-0.0049
4200,-0.5092,-0.735,0.1962
4220,-0.942,-0.4619,0.1932
4240,-0.626,-0.3942,0.1686
4260,-0.746,-0.4404,0.2616
4280,-0.7272,-0.5045,0.2728
4300,-0.7699,-0.4324,0.2379
4320,-0.8832,-0.3684,0.3634
4340,-0.9834,-0.1637,0.1261
4360,-1.0804,-0.5321,0.1226
4380,-0.8929,-0.8098,0.1993
4400,-0.7874,-0.6093,0.5005
4420,-0.9683,-0.8087,-0.0817
4440,-1.1403,-0.3231,-0.0625
4460,-0.7255,-0.2588,0.1517
4480,-0.5839,-0.3218,0.1669
4500,-0.5983,-0.2003,0.1477
4520,-0.8077,-0.0323,0.3009
4540,-1.2798,-0.1102,0.2914
4560,-1.0404,0.0487,0.0886
4580,-1.5051,-0.6204,0.4769
4600,-0.5487,-0.5786,0.1819
4620,-0.6664,-0.2438,0.177
4640,-0.8036,-0.5874,0.1245
4660,-0.9004,-0.1063,0.2623
4680,-0.5804,-0.377,0.167
4700,-0.9102,-0.4036,0.3384
4720,-0.8489,-0.4213,0.2836
4740,-0.873,-0.278,0.2583
4760,-0.9994,-0.2054,0.1525
4780,-0.9552,-0.5684,0.1373
4800,-0.9796,-0.7856,-0.0094
4820,-0.7006,-0.8964,0.2328
4840,-0.9113,-0.301,0.6108
4860,-1.3374,-0.3154,0.4241
4880,-0.9008,-0.2869,0.1499
4900,-0.7076,-0.2939,0.2156
4920,-0.6121,-0.2812,0.1218
4940,-0.6119,-0.0815,0.1516
4960,-0.953,-0.0116,0.5072
4980,-1.3816,-0.1472,0.3497
5000,-0.879,0.094,0.2234
5020,-1.2716,-1.0752,0.2388
5040,-0.6439,-0.4459,0.1121
5060,-0.5024,-0.4031,0.1194
5080,-0.9547,-0.5114,0.156
5100,-0.7875,-0.3175,0.2794
5120,-0.6698,-0.4114,0.2344
5140,-0.7124,-0.5431,0.3021
5160,-0.7513,-0.4746,0.2662
5180,-0.9017,-0.2527,0.2656
5200,-0.9746,-0.1248,0.158
5220,-1.0914,-0.3911,0.2538
5240,-0.9142,-0.9337,0.0388
5260,-0.6476,-0.7258,0.1648
5280,-1.0435,-0.5809,0.1768
5300,-1.2321,-0.3936,0.5934
5320,-0.8904,-0.1497,0.1835
5340,-0.7904,-0.3551,0.2902
5360,-0.5277,-0.2782,0.0739
5380,-0.6467,-0.0734,0.1948
5400,-1.0736,-0.0671,0.3265
5420,-1.2098,0.0031,-0.0065
5440,-1.626,-0.5906,0.4712
5460,-1.0426,-0.6095,0.4628
5480,-0.3513,-0.2585,0.1726
5500,-0.6239,-0.7026,0.2314
5520,-1.092,-0.2676,0.1937
5540,-0.6547,-0.4502,0.2155
5560,-0.6842,-0.481,0.2395
5580,-0.7289,-0.5496,0.3623
5600,-0.7006,-0.4507,0.2888
5620,-0.8422,-0.3507,0.2118
5640,-1.0454,-0.136,0.1575
5660,-1.0773,-0.7064,0.1316
5680,-0.7395,-0.9211,0.3939
5700,-0.875,-0.601,0.5543
5720,-1.3225,-0.5082,0.624
5740,-1.0892,-0.1646,0.2213
5760,-0.5808,-0.3267,0.2076
5780,-0.4812,-0.3297,0.1422
5800,-0.5312,-0.1793,0.0977
5820,-0.9434,-0.1781,0.2766
5840,-1.4174,-0.1569,0.2312
5860,-0.9678,0.1987,0.5856
5880,-1.7684,-0.9156,0.6337
5900,-0.8287,-0.0475,0.0494
5920,-0.277,-0.7306,0.1919
5940,-0.8562,-0.712,0.1917
5960,-0.6411,-0.3306,0.2841
5980,-0.6624,-0.4939,0.1959
6000,-0.7534,-0.5074,0.2937
6020,-0.8444,-0.3738,0.1995
6040,-0.8374,-0.3322,0.3673
6060,-0.8972,-0.2126,0.1294
6080,-1.0864,-0.3698,0.0946
6100,-1.0062,-0.8203,-0.0591
6120,-0.7362,-1.2365,0.425
6140,-0.873,-0.6693,0.2084
6160,-1.1829,-0.4745,0.3373
6180,-0.8774,-0.1857,0.1836
6200,-0.5925,-0.3516,0.1613
6220,-0.5087,-0.2643,0.1659
6240,-0.7378,-0.0096,0.2687
6260,-1.2909,-0.0707,0.3583
6280,-1.2565,-0.0818,0.2252
6300,-1.4563,-0.5594,0.5953
6320,-0.7002,-0.5859,0.2118
6340,-0.4644,-0.4716,0.1355
6360,-0.6534,-0.6711,0.2136
6380,-1.0872,-0.238,0.2284
6400,-0.7146,-0.2361,0.3107
6420,-0.7313,-0.527,0.2572
6440,-0.7128,-0.5355,0.3002
6460,-0.7314,-0.462,0.2322
6480,-0.8214,-0.3619,0.2159
6500,-1.1096,-0.1881,0.1646
6520,-1.0662,-0.5768,0.1814
6540,-0.795,-1.1281,0.295
6560,-0.72,-0.6797,0.4468
6580,-0.9473,-0.6001,0.1129
6600,-1.0575,-0.2947,0.2108
6620,-0.8044,-0.1771,0.1782
6640,-0.5397,-0.3445,0.0891
6660,-0.5331,-0.238,0.1252
6680,-0.7485,-0.1205,0.3339
6700,-1.4546,-0.0723,0.2687
6720,-0.9696,0.0873,0.087
6740,-1.4276,-0.77,0.3087
6760,-0.7339,-0.5033,0.23
6780,-0.6719,-0.4191,0.203
6800,-0.9048,-0.4143,0.0769
6820,-1.0946,-0.1858,0.2957
6840,-0.5603,-0.3462,0.2847
6860,-0.7279,-0.5044,0.3101
6880,-0.7297,-0.4988,0.2113
6900,-0.8224,-0.4137,0.2927
6920,-0.9095,-0.2615,0.2017
6940,-0.9874,-0.2385,0.1869
6960,-0.9586,-0.5437,0.0732
6980,-0.7914,-0.8212,0.3505
7000,-1.0278,-0.7177,0.4581
7020,-1.2758,-0.6783,0.0414
7040,-1.121,-0.2301,0.2439
7060,-0.728,-0.3098,0.1864
7080,-0.4347,-0.3412,0.0312
7100,-0.5321,-0.1851,0.1283
7120,-0.9426,-0.1376,0.3837
7140,-1.3286,-0.1003,0.2367
7160,-0.9692,0.009,0.0507
7180,-1.2745,-0.8076,0.4152
7200,-0.875,-0.3179,0.1759
7220,-0.6041,-0.4138,0.1139
7240,-0.7014,-0.5723,0.1626
7260,-0.9056,-0.3759,0.2797
7280,-0.6267,-0.5676,0.1848
7300,-0.6851,-0.463,0.1049
7320,-0.6791,-0.5002,0.1843
7340,-0.7755,-0.4838,0.3069
7360,-0.8677,-0.2727,0.2986
7380,-1.0038,-0.2603,0.1647
7400,-1.0735,-0.7137,0.2471
7420,-0.8586,-0.9097,0.1957
7440,-0.7982,-0.3994,0.6074
7460,-1.1261,-0.7458,0.1324
7480,-1.0518,-0.188,0.2181
7500,-0.7069,-0.3184,0.167
7520,-0.5992,-0.3531,0.1038
7540,-0.5968,-0.2247,0.1539
7560,-0.7187,-0.0278,0.3203
7580,-1.2377,-0.1274,0.481
7600,-1.1218,0.0635,-0.0408
7620,-1.5449,-0.7401,0.551
7640,-0.9066,-0.5487,0.1868
7660,-0.4397,-0.2163,0.0699
7680,-0.812,-0.5612,0.2145
7700,-1.0046,-0.2596,0.2374
7720,-0.5544,-0.5077,0.1097
7740,-0.6869,-0.5261,0.1853
7760,-0.8223,-0.4814,0.2379
7780,-0.8817,-0.379,0.4127
7800,-0.9019,-0.2162,0.1608
7820,-1.0552,-0.2111,0.1279
7840,-1.074,-0.4976,0.2147
7860,-0.8632,-0.8373,0.4388
7880,-0.8187,-0.7233,0.4823
7900,-1.1628,-0.4574,0.3157
7920,-1.0341,-0.1633,0.2195
7940,-0.6373,-0.3226,0.2153
7960,-0.5879,-0.3551,0.1533
7980,-0.603,-0.1495,0.1356
8000,-0.8159,-0.0547,0.5175
8020,-1.2931,-0.136,0.3466
8040,-0.9806,0.132,0.1959
8060,-1.1763,-0.707,0.4453
8080,-0.8026,-0.4075,0.2268
8100,-0.4875,-0.5221,0.2665
8120,-0.9152,-0.613,0.1687
8140,-0.8396,-0.1082,0.1732
8160,-0.4534,-0.6429,0.1539
8180,-1.0109,-0.6869,0.3192
8200,-0.9431,-0.313,0.2214
8220,-0.7769,-0.3461,0.239
8240,-0.8113,-0.3801,0.1545
8260,-0.9288,-0.2462,0.1395
8280,-1.0292,-0.3761,0.2208
8300,-1.1533,-0.8892,0.0299
8320,-0.4357,-0.8856,0.3677
8340,-0.9296,-0.5713,0.4485
8360,-1.248,-0.4232,0.3748
8380,-1.0209,-0.0652,0.2013
8400,-0.5476,-0.3171,0.2725
8420,-0.6632,-0.2159,0.1324
8440,-0.7061,-0.0145,0.2
8460,-1.2104,-0.0203,0.4208
8480,-1.1501,-0.2703,0.307
8500,-1.2015,-0.4613,0.6826
8520,-0.9963,-0.6105,0.2582
8540,-0.6096,-0.3579,0.141
8560,-0.7103,-0.4795,0.1136
8580,-0.9738,-0.1305,0.2198
8600,-0.7345,-0.5383,0.2599
8620,-0.7662,-0.5466,0.1653
8640,-0.772,-0.4778,0.2676
8660,-0.7833,-0.3958,0.2354
8680,-0.8344,-0.3895,0.2913
8700,-0.9011,-0.1886,0.1471
8720,-1.0017,-0.4622,0.1523
8740,-1.0221,-0.6831,0.0709
8760,-0.8029,-0.783,0.0665
8780,-0.5033,-0.6974,0.4877
8800,-0.9612,-0.5414,0.3505
8820,-1.1915,-0.4209,0.6541
8840,-0.7822,-0.1956,0.1661
8860,-0.7155,-0.4226,0.1471
8880,-0.6986,-0.2615,0.1333
8900,-0.6862,0.0405,0.2939
8920,-1.0538,-0.1377,0.2358
8940,-1.2146,-0.2416,0.1205
8960,-1.176,-0.7054,0.5536
8980,-1.0505,-0.571,0.4852
9000,-0.488,-0.1965,0.1353
9020,-0.6545,-0.5198,0.1846
9040,-0.9827,-0.3618,0.2706
9060,-0.6686,-0.3966,0.1937
9080,-0.6843,-0.5215,0.269
9100,-0.733,-0.5945,0.2296
9120,-0.7778,-0.4215,0.2404
9140,-0.8936,-0.2981,0.3025
9160,-0.9414,-0.1663,0.1415
9180,-1.1053,-0.488,0.1239
