timestamp,ax,ay,az
0,-1.3425,-0.2535,0.3387
20,-0.2758,-0.3893,0.1177
40,0.7292,0.4298,-0.4108
60,-0.2771,0.3038,0.1611
80,-1.8618,-1.6827,1.028
100,-0.6761,-0.6746,0.4762
120,-1.4366,-0.2916,0.2091
140,-1.5052,-0.6536,0.3021
160,-0.8094,-0.4501,-0.1555
180,-0.3093,-0.8478,0.3892
200,-0.1234,-0.1309,-0.1683
220,-0.436,0.6102,-0.0658
240,-2.0881,-0.6298,0.394
260,-1.2404,-1.327,-0.0142
280,-1.0164,-0.6603,0.0844
300,-1.3055,-0.2437,0.3448
320,-0.2721,-0.2151,0.05
340,0.152,-0.0216,0.3608
360,-1.069,0.2292,0.7355
380,-0.7439,-0.124,0.0781
400,-1.5884,-2.4139,-0.6932
420,-0.348,-0.7299,-0.167
440,-0.6294,-0.5742,0.1381
460,-1.4167,-0.9335,0.3312
480,-0.8595,-0.4088,0.1055
500,-0.7214,-0.3975,0.2384
520,-0.7799,-0.2684,0.2571
540,-0.5905,-0.4258,0.0227
560,-0.6224,-0.3795,-0.0155
580,-0.8475,-0.6818,0.0225
600,-0.696,-0.3048,-0.0424
620,-1.4305,-0.6621,0.2069
640,-0.8651,-1.3656,0.2533
660,-0.5034,-1.0126,0.1765
680,-0.7822,-0.2195,0.2781
700,-1.0004,-0.3796,0.3486
720,-0.7847,-0.3987,0.3422
740,-0.6812,-0.4716,0.306
760,-0.71,-0.5295,0.2671
780,-0.8428,-0.3022,0.3036
800,-0.933,-0.3188,0.2625
820,-0.8464,-0.2875,0.3044
840,-0.7781,-0.2472,0.3535
860,-0.9697,-0.1256,0.3379
880,-0.8822,-0.2073,0.3843
900,-0.7853,-0.3015,0.3834
920,-0.8706,-0.2615,0.4774
940,-0.9532,-0.0599,0.4938
960,-0.7183,-0.0912,0.4805
980,-1.2056,-0.5779,0.7544
1000,-0.7249,-0.7161,0.2329
1020,-0.6495,-0.5594,-0.0067
1040,-0.7903,-0.4081,0.0374
1060,-0.9397,-0.561,0.0879
1080,-0.7522,-0.5142,0.1576
1100,-0.9005,-0.4142,0.1332
1120,-0.8473,-0.4922,0.136
1140,-0.848,-0.4399,0.0914
1160,-0.8691,-0.4687,0.1844
1180,-0.9045,-0.3615,0.0736
1200,-0.9225,-0.3258,0.0438
1220,-0.8538,-0.5288,0.0696
1240,-1.041,-0.4623,0.217
1260,-0.9901,-0.6169,0.092
1280,-0.7079,-0.9152,0.1637
1300,-0.7958,-0.8092,0.3239
1320,-1.033,-0.2338,0.303
1340,-0.8665,-0.2825,0.2607
1360,-0.5764,-0.4205,0.2992
1380,-0.589,-0.4281,0.2922
1400,-0.5937,-0.3278,0.3284
1420,-0.7036,-0.1879,0.5074
1440,-1.254,-0.1051,0.4973
1460,-1.0413,-0.1927,0.4615
1480,-0.9081,-0.8545,0.2457
1500,-0.5028,-0.1871,0.3534
1520,-0.62,-0.6158,0.0229
1540,-1.1057,-0.6857,0.1144
1560,-0.8546,-0.4337,0.0846
1580,-0.7123,-0.5129,0.0646
1600,-0.858,-0.5988,0.1448
1620,-0.8293,-0.5155,0.1179
1640,-0.8387,-0.5426,0.1176
1660,-0.8019,-0.5126,0.1259
1680,-0.9214,-0.4105,0.1482
1700,-0.9146,-0.496,0.1466
1720,-0.9119,-0.6868,0.0842
1740,-0.6682,-0.6407,0.0792
1760,-0.8124,-0.502,0.0933
1780,-0.847,-0.5953,0.1547
1800,-0.7992,-0.5275,0.1476
1820,-0.876,-0.4557,0.2002
1840,-0.8286,-0.5239,0.1925
1860,-0.8071,-0.533,0.1798
1880,-0.8076,-0.575,0.1387
1900,-0.7787,-0.6046,0.1689
1920,-0.7678,-0.6069,0.1741
1940,-0.8201,-0.5658,0.1927
1960,-0.8085,-0.5303,0.2036
1980,-0.8036,-0.5402,0.2194
2000,-0.7906,-0.5587,0.2108
2020,-0.7993,-0.5574,0.1879
2040,-0.8287,-0.5524,0.2025
2060,-0.7709,-0.567,0.2119
2080,-0.8179,-0.5338,0.2278
2100,-0.8329,-0.4629,0.2242
2120,-0.8668,-0.4841,0.2308
2140,-0.8174,-0.5,0.2097
2160,-0.8102,-0.5665,0.1998
2180,-0.8268,-0.583,0.2002
2200,-0.8125,-0.5342,0.1743
2220,-0.8402,-0.5281,0.196
2240,-0.8153,-0.5182,0.1699
2260,-0.8241,-0.5729,0.1871
2280,-0.8201,-0.5659,0.1831
2300,-0.8013,-0.5404,0.1776
2320,-0.7505,-0.4482,0.2009
2340,-0.871,-0.3995,0.3114
2360,-0.8423,-0.5555,0.2511
2380,-0.7878,-0.5592,0.2035
2400,-0.7964,-0.5336,0.2041
2420,-0.8082,-0.5055,0.2277
2440,-0.7592,-0.4845,0.23
2460,-0.7748,-0.4376,0.2365
2480,-0.9292,-0.4976,0.3969
2500,-0.9565,-0.5012,0.3324
2520,-0.9266,-0.3341,0.3899
2540,-0.8092,-0.4498,0.3304
2560,-0.8008,-0.4761,0.286
2580,-0.8995,-0.3026,0.3262
2600,-0.8643,-0.3671,0.3016
2620,-0.8198,-0.3552,0.3104
2640,-0.7882,-0.276,0.3375
2660,-0.847,-0.1389,0.3705
2680,-0.9397,-0.0748,0.4349
2700,-0.9298,-0.2839,0.4779
2720,-1.1592,-0.5752,0.3722
2740,-0.7136,-0.4113,0.2695
2760,-0.806,-0.4431,0.0625
2780,-0.6941,-0.5488,0.1068
2800,-0.6802,-0.5262,0.0995
2820,-1.0488,-0.3602,0.1318
2840,-1.0054,-0.4091,0.1499
2860,-0.7982,-0.5103,0.124
2880,-0.7297,-0.6058,0.168
2900,-0.7815,-0.4849,0.073
2920,-0.8391,-0.5062,0.139
2940,-0.9207,-0.4495,0.1766
2960,-0.9908,-0.2178,0.1331
2980,-1.1267,-0.2155,0.1989
3000,-1.1764,-0.6368,0.087
3020,-0.7827,-0.6361,-0.1555
3040,-0.9518,-0.9557,0.1345
3060,-1.1954,-0.498,0.321
3080,-1.0778,-0.2054,0.1887
3100,-0.6179,-0.2535,-0.037
3120,-0.4822,-0.3269,0.1792
3140,-0.6659,-0.2201,0.3665
3160,-0.7926,-0.0756,0.6605
3180,-1.4868,-0.1401,0.6191
3200,-0.9115,-0.2455,0.4578
3220,-0.9852,-0.8446,0.6008
3240,-0.6689,-0.3759,-0.1532
3260,-0.3251,-0.7216,-0.3309
3280,-1.0499,-0.4805,0.4607
3300,-0.6718,-0.3994,0.1208
3320,-0.8438,-0.5283,0.0106
3340,-0.8378,-0.5123,0.2374
3360,-0.6919,-0.7299,0.0002
3380,-0.8406,-0.406,0.2513
3400,-1.0564,-0.2072,0.0676
3420,-1.0618,-0.4568,-0.0675
3440,-0.7445,-0.7671,-0.1427
3460,-1.0933,-0.9468,0.2655
3480,-1.4547,-0.5002,0.7512
3500,-1.0415,0.1735,0.1615
3520,-0.5587,-0.2865,-0.0532
3540,-0.4128,-0.5121,-0.0675
3560,-0.5292,-0.1803,0.3511
3580,-0.9183,-0.2596,0.2738
3600,-1.4253,-0.1589,0.4872
3620,-1.6165,-0.8423,0.1987
3640,-0.8508,-0.5114,0.6685
3660,-0.7245,-0.3048,-0.2343
3680,-0.9534,-0.8623,-0.1023
3700,-0.6715,-0.0229,0.1549
3720,-0.491,-0.5074,-0.1315
3740,-0.6783,-0.6078,0.1464
3760,-0.9785,-0.5023,0.1318
3780,-1.0763,-0.3029,0.2869
3800,-1.0293,-0.1056,0.0104
3820,-1.068,-0.7327,0.0533
3840,-0.3939,-1.1681,-0.0135
3860,-1.1885,-0.7295,0.2495
3880,-1.0024,-0.4927,0.1531
3900,-0.8077,-0.3033,-0.0072
3920,-0.3383,-0.3381,0.0228
3940,-0.422,-0.2942,0.0396
3960,-0.6229,-0.0638,0.6071
3980,-1.7551,-0.4879,0.7747
4000,-0.7454,-0.1661,0.2388
4020,-1.2001,-1.2059,-0.037
4040,-0.781,-0.666,-0.1029
4060,-0.5742,-0.4993,0.0455
4080,-0.5643,-0.6644,0.2524
4100,-0.569,-0.7023,0.0367
4120,-0.7402,-0.4739,-0.0173
4140,-0.7974,-0.4674,0.1602
4160,-0.9482,-0.3005,0.2804
4180,-0.8865,-0.149,0.207
4200,-1.0649,-0.2268,0.1979
4220,-1.1132,-0.7308,0.0446
4240,-0.825,-1.1025,-0.0677
4260,-1.0892,-1.0748,0.0284
4280,-1.2562,-0.2905,0.5499
4300,-0.6497,-0.11,0.0548
4320,-0.4062,-0.3042,0.0623
4340,-0.4559,-0.5212,0.012
4360,-0.603,-0.2341,0.4778
4380,-1.1205,-0.3005,0.4713
4400,-1.3894,-0.0583,0.6746
4420,-0.7758,-0.9794,-0.0364
4440,-0.2273,-0.3357,0.0862
4460,-0.7324,-0.394,-0.0615
4480,-0.8553,-0.5347,0.3364
4500,-0.4904,-0.5298,-0.0255
4520,-0.7719,-0.5957,-0.0135
4540,-0.6724,-0.7488,0.0991
4560,-0.7964,-0.4337,0.1646
4580,-0.9668,-0.0684,0.1464
4600,-1.0532,-0.2012,0.1129
4620,-0.6288,-0.6943,0.0009
4640,-1.1726,-1.6022,0.5361
4660,-1.5043,-0.683,0.3529
4680,-1.2358,0.2994,0.4006
4700,-0.5293,-0.1965,0.0651
4720,-0.2698,-0.5112,-0.2301
4740,-0.5258,-0.2435,0.2207
4760,-0.8397,-0.2457,0.5881
4780,-1.7904,-0.3175,0.2417
4800,-1.4489,-1.1173,0.6991
4820,-0.6108,-0.5845,0.5267
4840,-0.5515,-0.4515,-0.1306
4860,-0.7969,-0.8972,-0.064
4880,-0.8557,-0.4318,0.2036
4900,-0.5541,-0.5209,0.094
4920,-0.7938,-0.7618,0.0044
4940,-0.8201,-0.5453,0.1207
4960,-0.7242,-0.3795,0.1353
4980,-0.9482,0.0164,0.1622
5000,-1.2692,-0.3009,-0.1177
5020,-1.1677,-0.9049,0.252
5040,-1.1248,-1.5321,-0.2106
5060,-1.3132,-0.2881,0.4445
5080,-0.7346,-0.099,0.236
5100,-0.4531,-0.3301,0.0106
5120,-0.4586,-0.5563,0.1427
5140,-0.5183,-0.236,0.4597
5160,-1.3038,-0.2648,0.428
5180,-1.1556,-0.0507,0.5531
5200,-1.63,-1.1826,0.2051
5220,-0.4883,-0.5663,0.1315
5240,-0.5155,-0.3567,0.0582
5260,-1.4027,-0.4125,-0.0382
5280,-0.573,-0.5317,0.0786
5300,-0.5591,-0.5618,-0.0249
5320,-0.7272,-0.5599,0.1117
5340,-0.881,-0.5007,0.2527
5360,-0.9423,-0.0288,0.2385
5380,-1.1647,-0.125,0.1263
5400,-1.1321,-0.7278,0.02
5420,-1.1195,-1.3903,0.5894
5440,-1.145,-0.8414,0.1282
5460,-1.1531,-0.0754,0.3445
5480,-0.5887,-0.1366,-0.0125
5500,-0.3619,-0.4567,-0.041
5520,-0.5148,-0.2501,0.2424
5540,-0.6594,-0.1156,0.8962
5560,-2.1265,-0.4171,0.4376
5580,-1.3783,-1.1085,0.4631
5600,-0.7175,-0.6543,0.5045
5620,-0.6854,-0.2406,-0.064
5640,-0.9268,-0.6492,-0.2587
5660,-0.7463,-0.6576,0.4114
5680,-0.4796,-0.76,0.0308
5700,-0.9275,-0.5773,0.0297
5720,-0.7977,-0.615,0.1066
5740,-0.9042,-0.345,0.2792
5760,-1.0288,-0.04,0.1429
5780,-1.3065,-0.4286,0.0007
5800,-0.8386,-0.8153,-0.4271
5820,-1.0568,-1.4093,0.4456
5840,-1.5656,-0.2977,0.8319
5860,-1.0452,-0.0376,0.2656
5880,-0.4355,-0.3629,-0.2299
5900,-0.3751,-0.421,-0.1313
5920,-0.5344,-0.0288,0.312
5940,-1.0082,-0.0825,0.6676
5960,-1.1609,-0.3762,0.1823
5980,-1.0233,-1.2483,0.1926
6000,-0.848,-0.5809,0.1248
6020,-0.4283,-0.3679,0.092
6040,-0.8004,-0.405,0.0598
6060,-0.7064,-0.6069,0.2253
6080,-0.6859,-0.4917,0.0355
6100,-0.8176,-0.4218,0.1014
6120,-0.813,-0.5612,0.1564
6140,-0.873,-0.2373,0.2765
6160,-1.0189,-0.0848,0.0712
6180,-1.2246,-0.5135,0.2574
6200,-0.7673,-1.1874,-0.3535
6220,-0.9247,-1.0009,0.2721
6240,-1.1077,-0.3098,0.3009
6260,-0.8065,-0.1361,0.0911
6280,-0.3401,-0.2761,-0.009
6300,-0.4727,-0.3546,-0.0154
6320,-0.5703,-0.1639,0.6289
6340,-1.611,-0.4227,0.4137
6360,-0.9811,-0.2069,0.2904
6380,-0.7717,-1.1465,0.1284
6400,-0.6678,-0.2161,-0.1643
6420,-0.5403,-0.5316,0.0402
6440,-0.9641,-0.6971,0.1738
6460,-0.5186,-0.6575,0.0629
6480,-0.6641,-0.5166,0.0148
6500,-0.77,-0.5449,0.1589
6520,-0.955,-0.438,0.1561
6540,-0.8221,-0.1814,0.16
6560,-0.9803,-0.354,0.05
6580,-1.1029,-0.59,0.1337
6600,-0.9097,-1.0277,-0.2073
6620,-1.1771,-1.0247,0.3815
6640,-1.0125,-0.4417,0.2546
6660,-0.6932,-0.1826,0.1133
6680,-0.4548,-0.4016,0.0786
6700,-0.411,-0.4019,0.1198
6720,-0.6052,-0.099,0.5983
6740,-1.6592,0.0011,0.3943
6760,-0.6818,-0.0742,0.4193
6780,-1.0774,-1.2932,0.0986
6800,-0.6915,-0.4281,-0.0743
6820,-0.3615,-0.5284,-0.0081
6840,-0.9755,-0.7151,-0.0057
6860,-0.667,-0.6249,0.0676
6880,-0.6849,-0.4294,0.0002
6900,-0.8053,-0.5009,0.191
6920,-0.7985,-0.4938,0.1466
6940,-0.9067,-0.0878,0.4645
6960,-1.1475,-0.2115,0.2766
6980,-1.0977,-0.533,0.1578
7000,-1.1116,-1.3182,-0.1346
7020,-1.0365,-0.7466,0.084
7040,-0.9796,-0.0996,0.3547
7060,-0.7271,-0.0009,-0.2064
7080,-0.4564,-0.476,0.115
7100,-0.4686,-0.3693,0.1835
7120,-0.6836,-0.0023,0.8409
7140,-1.826,-0.533,0.6708
7160,-1.3489,-0.9554,0.1317
7180,-0.2742,-0.2645,0.1052
7200,-0.6117,-0.4501,-0.0713
7220,-1.3368,-0.4442,0.3063
7240,-0.3529,-0.5032,0.0037
7260,-0.8047,-0.3668,0.1576
7280,-0.7522,-0.4635,0.207
7300,-0.7723,-0.5795,0.1825
7320,-0.7902,-0.1404,0.183
7340,-0.9863,-0.29,-0.0851
7360,-1.1821,-0.6725,-0.0005
7380,-1.0165,-1.3519,0.0293
7400,-1.2747,-0.7982,0.5375
7420,-1.1957,-0.0779,0.3832
7440,-0.4938,-0.3208,0.0474
7460,-0.3059,-0.5018,-0.0753
7480,-0.3372,-0.4099,0.0031
7500,-0.5455,-0.0623,0.6265
7520,-1.9398,-0.2462,0.5221
7540,-1.3535,-0.9823,0.3521
7560,-0.5314,-0.4974,0.7448
7580,-0.7582,-0.1448,-0.2166
7600,-0.8376,-0.7554,-0.0868
7620,-0.8994,-0.4766,0.2686
7640,-0.5029,-0.5073,-0.0206
7660,-0.7544,-0.6112,-0.0088
7680,-0.8499,-0.5336,0.217
7700,-0.7329,-0.433,0.2817
7720,-0.9465,-0.118,0.0222
7740,-1.24,-0.4094,0.0402
7760,-1.0076,-0.9003,-0.2257
7780,-1.1063,-1.1777,0.4178
7800,-1.3073,-0.5782,0.3353
7820,-1.0522,-0.0664,0.5808
7840,-0.4139,-0.3508,-0.1592
7860,-0.3751,-0.4104,-0.0767
7880,-0.54,-0.1838,0.3944
7900,-0.9287,0.0104,0.5254
7920,-1.4408,-0.178,0.3246
7940,-1.3339,-1.1763,0.5732
7960,-0.7906,-0.5312,0.3456
7980,-0.382,-0.2616,-0.0463
8000,-0.7048,-0.6967,-0.1105
8020,-0.7722,-0.5605,0.4698
8040,-0.6003,-0.5192,0.0222
8060,-0.7083,-0.3718,0.1346
8080,-0.8845,-0.4677,0.1198
8100,-1.0112,-0.0312,0.3489
8120,-1.1493,-0.1829,0.0377
8140,-0.6985,-0.923,0.0165
8160,-1.1062,-1.2861,-0.2041
8180,-1.3611,-0.8927,0.0574
8200,-1.4025,0.2443,-0.0433
8220,-0.436,-0.1726,-0.1252
8240,-0.3252,-0.4829,-0.0957
8260,-0.5309,-0.4713,0.1487
8280,-0.6908,-0.1836,0.5703
8300,-1.3796,-0.217,0.5273
8320,-1.7548,-1.0865,0.371
8340,-0.5435,-0.323,0.4834
8360,-0.6851,-0.4865,-0.1816
8380,-0.9951,-0.5864,0.175
8400,-0.8771,-0.29,0.1306
8420,-0.499,-0.4587,-0.0966
8440,-0.8947,-0.573,0.1392
8460,-0.8687,-0.556,0.3064
8480,-0.7329,-0.5356,0.0784
8500,-0.949,-0.2404,0.0791
8520,-1.3586,-0.5649,-0.0306
8540,-0.8669,-0.749,-0.0437
8560,-0.9852,-1.0126,0.1504
8580,-1.3981,-0.4385,0.2157
8600,-0.9696,-0.1261,0.1888
8620,-0.5115,-0.2179,-0.0593
8640,-0.4739,-0.2581,0.0637
8660,-0.5681,-0.2539,0.2826
8680,-0.9153,0.0762,0.6143
8700,-1.7524,-0.3982,0.5236
8720,-1.1716,-1.1766,0.0737
8740,-0.3081,-0.3771,0.2491
8760,-0.7506,-0.4222,0.0657
8780,-1.0992,-0.5917,0.166
8800,-0.4714,-0.5013,0.0004
8820,-0.532,-0.498,0.0952
8840,-0.8037,-0.5188,0.1617
8860,-0.8942,-0.5262,0.2133
8880,-0.8158,-0.1962,0.1555
8900,-1.0383,-0.3409,0.1128
8920,-0.9801,-0.6884,0.0518
8940,-0.899,-0.8268,0.2708
8960,-1.1804,-1.0491,-0.1019
8980,-1.063,-0.2982,0.2795
9000,-0.6261,-0.2292,0.0876
9020,-0.3801,-0.4426,0.0289
9040,-0.3596,-0.3353,0.1462
9060,-0.6857,-0.0421,0.7241
9080,-1.8949,-0.3555,0.8569
9100,-0.6368,0.0828,0.475
9120,-1.0519,-1.3929,0.4801
9140,-0.6559,-0.2699,-0.2634
9160,-0.338,-0.45,0.0963
9180,-1.0746,-0.5729,0.3604
9200,-0.6595,-0.6155,0.166
9220,-0.762,-0.4884,0.0651
9240,-0.6951,-0.5916,0.001
9260,-0.9025,-0.4083,0.3647
9280,-1.041,0.0067,0.2664
9300,-1.2782,-0.3654,-0.0071
9320,-1.0607,-1.1021,-0.1957
9340,-1.0618,-1.396,0.2247
9360,-1.384,-0.1788,0.7269
9380,-0.8633,-0.0789,0.0114
9400,-0.3052,-0.3849,0.0034
9420,-0.3517,-0.2882,0.0205
9440,-0.5999,0.0637,0.8151
9460,-1.9385,-0.4561,0.7959
9480,-0.631,-0.248,0.9
9500,-1.1072,-1.0237,0.2725
9520,-0.5367,-0.2476,-0.299
9540,-0.5226,-0.347,-0.1213
9560,-0.9941,-0.6815,0.2024
9580,-0.521,-0.6652,0.1105
9600,-0.7598,-0.4034,0.0518
9620,-0.6874,-0.5542,0.0441
9640,-0.8488,-0.575,0.3073
9660,-1.0745,0.056,0.1693
9680,-1.2755,-0.2349,-0.0635
9700,-1.0424,-1.106,-0.1422
9720,-1.1074,-1.2822,0.035
9740,-1.5004,-0.329,0.7751
9760,-0.8939,-0.0559,0.2839
9780,-0.3346,-0.4625,-0.2654
9800,-0.2074,-0.3434,-0.0699
9820,-0.5227,0.0702,0.6813
9840,-1.9838,-0.1708,0.8749
9860,-0.7162,0.0376,0.1433
9880,-1.1278,-1.5077,-0.2178
9900,-0.3882,-0.4983,-0.1812
9920,-0.5154,-0.6445,-0.0167
9940,-1.3096,-0.6377,0.3175
9960,-0.3965,-0.4491,-0.0613
9980,-0.6655,-0.369,0.0332
10000,-0.744,-0.6675,0.2135
10020,-0.8743,-0.3607,0.2734
10040,-0.9484,0.0791,0.2115
10060,-1.49,-0.1631,-0.0388
10080,-0.9329,-1.2008,-0.1167
10100,-1.1577,-1.3245,-0.0267
10120,-1.5256,-0.3282,0.4354
10140,-0.978,-0.1736,0.2852
10160,-0.3838,-0.3698,-0.0093
10180,-0.1604,-0.4861,-0.1108
10200,-0.5275,-0.2415,0.2627
10220,-1.2126,-0.2811,0.5216
10240,-1.5332,0.1135,0.2025
10260,-1.11,-1.4276,-0.0569
10280,-0.4823,-0.0713,-0.0405
10300,-0.413,-0.608,-0.0703
10320,-1.0538,-0.6648,0.2209
10340,-0.5485,-0.6139,0.0253
10360,-0.8115,-0.3748,-0.1023
10380,-0.9397,-0.5414,0.3455
10400,-0.7681,-0.5475,0.1262
10420,-0.856,-0.1995,0.2216
10440,-0.998,-0.1504,0.0167
10460,-1.417,-0.1158,0.1957
10480,-1.0238,-1.1621,-0.1404
10500,-1.1362,-1.6332,0.2708
10520,-1.25,-0.386,0.439
10540,-0.6011,-0.1893,0.1184
10560,-0.4517,-0.3784,-0.0801
10580,-0.1963,-0.2942,-0.0253
10600,-0.3047,-0.0326,0.5232
10620,-1.5109,-0.6729,0.7225
10640,-1.101,0.3505,-0.0638
10660,-1.458,-0.8112,0.1387
10680,-0.7471,-0.3157,0.3319
10700,-0.1755,-0.8136,-0.1113
10720,-1.1234,-0.4227,0.0316
10740,-0.8667,-0.1663,0.1006
10760,-0.5468,-0.5199,-0.0028
10780,-0.7301,-0.5737,0.0623
10800,-0.8201,-0.5302,0.1582
10820,-0.889,-0.3264,0.3225
10840,-0.9508,-0.156,-0.0033
10860,-1.3219,-0.7852,0.088
10880,-0.7517,-1.1821,-0.1943
10900,-1.1344,-0.8916,0.3038
10920,-1.5516,-0.2904,0.4536
10940,-1.1742,0.0032,0.2725
10960,-0.3645,-0.3926,-0.0016
10980,-0.2792,-0.486,-0.0366
11000,-0.5758,-0.2207,0.3652
11020,-0.9252,-0.1653,0.5629
11040,-1.8171,0.0238,0.4266
11060,-1.9658,-0.8566,0.5122
11080,-0.71,-0.8143,0.1566
11100,-0.7164,-0.4003,-0.0457
11120,-0.7322,-0.5964,-0.0325
11140,-0.9392,-0.2931,0.1392
11160,-0.7756,-0.3774,0.125
11180,-0.901,-0.4242,0.174
11200,-0.6201,-0.5442,0.135
11220,-0.7858,-0.475,0.1227
11240,-1.0527,-0.2109,0.0248
11260,-0.9777,-0.3981,0.0457
11280,-0.7875,-0.8248,-0.2484
11300,-1.3884,-0.9159,0.8287
11320,-1.6615,-0.5449,0.4453
11340,-0.9235,0.0073,0.2451
11360,-0.0292,-0.1659,0.0819
11380,-0.6505,-0.3046,0.2736
11400,-0.8512,-0.0751,0.2969
11420,-0.7798,-0.0723,0.2483
11440,-0.3483,0.1013,0.3798
11460,-1.4958,-0.0323,0.332
11480,-2.0482,-0.9249,0.5366
11500,-0.7084,-0.345,0.7556
11520,-0.6965,-0.1698,-0.0927
11540,-0.9816,-0.5514,-0.1232
11560,-0.6953,-0.473,0.2368
11580,-0.485,-0.637,0.1816
11600,-1.0175,-0.6123,-0.0048
11620,-0.8555,-0.363,0.1172
11640,-0.8243,-0.3983,0.2041
11660,-0.8502,-0.3756,0.1213
11680,-1.0593,-0.5083,-0.1066
11700,-0.9911,-0.8938,0.124
11720,-0.7405,-0.7057,-0.0895
11740,-1.2406,-0.5659,0.1121
11760,-1.1886,-0.3519,0.3807
11780,-0.6281,-0.2279,0.0968
11800,-0.8093,-0.1481,0.3611
11820,-0.793,-0.2606,0.4661
11840,-0.5034,-0.2762,0.7031
11860,-1.5088,-0.2428,0.7623
11880,-0.7542,0.2676,0.3033
11900,-1.0814,-0.8116,0.3104
11920,-0.7916,-0.3455,-0.0165
11940,-0.6133,-0.4176,0.0992
11960,-1.057,-0.5314,0.2976
11980,-0.6617,-0.4596,0.1061
12000,-0.79,-0.408,0.1172
12020,-0.8175,-0.4303,0.229
12040,-0.5693,-0.5176,-0.0383
12060,-0.8798,-0.396,0.3649
12080,-1.1132,0.0879,0.0735
12100,-1.0792,-0.3177,-0.1937
12120,-0.8181,-0.8961,-0.2167
12140,-1.2194,-1.059,0.3289
12160,-1.4331,-0.2513,0.5901
12180,-0.9637,-0.1245,0.1635
12200,-0.604,-0.2981,0.1531
12220,-0.4081,-0.4185,0.1279
12240,-0.5363,-0.1118,0.2837
12260,-0.8525,0.1162,0.4067
12280,-1.5112,-0.192,0.2113
12300,-1.476,-1.2151,0.2814
12320,-0.4921,-0.4476,0.6414
12340,-0.7421,-0.2864,-0.1964
12360,-0.9695,-0.474,0.0599
12380,-0.8993,-0.449,0.3043
12400,-0.6057,-0.5409,0.0291
12420,-0.8661,-0.545,0.0977
12440,-0.7432,-0.6426,0.0638
12460,-0.8588,-0.5878,0.1191
12480,-0.9734,-0.3818,0.384
12500,-1.0405,-0.1018,0.3394
12520,-0.8571,-0.483,0.0198
12540,-1.0356,-1.2173,-0.0944
12560,-0.6262,-0.7693,-0.0892
12580,-0.8459,-1.0107,0.313
12600,-0.9802,-0.3979,0.0845
12620,-0.7307,-0.3611,-0.0286
12640,-0.4138,-0.4312,0.1592
12660,-0.5779,-0.3287,0.1444
12680,-0.7187,-0.0851,0.2932
12700,-1.1173,0.0494,0.5001
12720,-1.3749,-0.0881,0.2628
12740,-0.9456,-0.7319,0.3616
12760,-0.2959,-0.2402,0.2512
12780,-0.9572,-0.6923,0.1404
12800,-0.8268,-0.4613,0.0753
12820,-0.8156,-0.4996,0.1302
12840,-0.926,-0.3569,0.1682
12860,-0.7944,-0.4867,0.1986
12880,-0.6111,-0.549,0.0411
12900,-0.7888,-0.7089,0.0414
12920,-0.9424,-0.5681,0.1985
12940,-0.8618,-0.3392,0.0736
12960,-1.1165,-0.3817,0.0469
12980,-1.1154,-0.7594,-0.0886
13000,-1.0325,-0.6749,0.1506
13020,-0.7458,-0.5402,0.3036
13040,-0.9794,-0.4802,0.3256
13060,-0.7235,-0.6437,0.224
13080,-0.8245,-0.1467,0.2031
13100,-0.7168,-0.4667,0.3074
13120,-0.5797,-0.3041,0.301
13140,-0.71,-0.082,0.3301
13160,-0.8065,-0.014,0.4015
13180,-1.2644,0.0079,0.3715
13200,-0.9081,-0.5743,0.5173
13220,-0.9082,-0.6584,0.4899
13240,-0.7843,-0.36,0.1508
13260,-0.7173,-0.5204,0.1268
13280,-0.9464,-0.2014,0.2115
13300,-0.6979,-0.5505,0.1027
13320,-0.8215,-0.5656,0.1227
13340,-0.8246,-0.499,0.1215
13360,-0.7828,-0.536,0.0897
13380,-0.8661,-0.5658,0.1228
13400,-0.8678,-0.4875,0.0981
13420,-0.8177,-0.4714,0.11
13440,-0.7551,-0.6285,0.1768
13460,-0.902,-0.5201,0.0775
13480,-0.9099,-0.4697,0.0365
13500,-0.6805,-0.7446,-0.0002
13520,-0.9653,-0.323,0.1116
13540,-1.0448,-0.4458,0.1548
13560,-0.9218,-0.5731,0.0995
13580,-0.7776,-0.7032,0.1216
13600,-0.5973,-0.6245,0.1111
13620,-0.6799,-0.6613,0.2598
13640,-0.8761,-0.6522,0.3734
13660,-0.7985,-0.4833,0.3481
13680,-0.7152,-0.4562,0.29
13700,-0.6798,-0.4713,0.4008
13720,-0.7163,-0.4021,0.3093
13740,-0.7775,-0.3982,0.4264
13760,-0.7762,-0.4435,0.2417
13780,-0.9695,-0.4587,0.4086
13800,-0.7894,-0.5952,0.2308
13820,-0.8706,-0.4625,0.2047
13840,-0.7438,-0.4712,0.1664
13860,-0.8514,-0.5638,0.2187
13880,-0.7628,-0.5173,0.1963
13900,-0.799,-0.5012,0.1925
13920,-0.8796,-0.4954,0.2108
13940,-0.9445,-0.3624,0.2063
13960,-0.7916,-0.6285,0.1851
13980,-0.7814,-0.5405,0.1597
14000,-0.8481,-0.5018,0.1649
14020,-0.845,-0.4784,0.193
14040,-0.9021,-0.4222,0.2216
14060,-0.84,-0.4886,0.1725
14080,-0.8512,-0.53,0.177
14100,-0.8594,-0.4908,0.1133
14120,-0.865,-0.4956,0.1392
14140,-0.8335,-0.5471,0.1139
14160,-0.8762,-0.4868,0.1279
14180,-0.8618,-0.4943,0.1055
14200,-0.851,-0.5145,0.0896
14220,-0.8757,-0.4709,0.1018
14240,-0.955,-0.3903,0.1094
14260,-0.7828,-0.5782,0.0935
14280,-0.8646,-0.4501,0.129
14300,-0.8639,-0.5011,0.1171
14320,-0.8596,-0.4867,0.1064
14340,-0.8842,-0.472,0.1105
14360,-0.8959,-0.4403,0.1434
14380,-0.9236,-0.3976,0.1387
14400,-0.8822,-0.4849,0.1113
14420,-0.8658,-0.5295,0.1288
14440,-0.8668,-0.5009,0.1396
14460,-0.8177,-0.5083,0.1345
14480,-0.8619,-0.4698,0.1384
14500,-0.8658,-0.4587,0.1603
14520,-0.8867,-0.4104,0.1897
14540,-0.866,-0.4835,0.1735
14560,-0.8767,-0.4178,0.1613
14580,-0.8744,-0.4904,0.1562
14600,-0.809,-0.5288,0.1697
14620,-0.8513,-0.4973,0.1168
14640,-0.8525,-0.5278,0.1146
14660,-0.8214,-0.528,0.1312
14680,-0.8649,-0.4799,0.1243
14700,-0.8644,-0.522,0.114
14720,-0.8501,-0.4863,0.1332
14740,-0.8459,-0.5012,0.1191
14760,-0.8429,-0.5262,0.1229
14780,-0.8663,-0.4615,0.1036
14800,-0.8646,-0.4911,0.1199
14820,-0.8539,-0.4813,0.1249
14840,-0.8423,-0.5381,0.1255
14860,-0.8628,-0.4839,0.1031
14880,-0.8871,-0.4211,0.1013
14900,-0.8767,-0.4856,0.0724
14920,-0.8951,-0.4841,0.0923
14940,-0.8647,-0.5005,0.073
14960,-0.8278,-0.5195,0.1124
14980,-0.8467,-0.54,0.1055
15000,-0.9047,-0.5186,0.0747
15020,-0.8484,-0.4968,0.095
15040,-0.8589,-0.4788,0.0885
15060,-0.8356,-0.5743,0.0811
15080,-0.8835,-0.4401,0.0854
15100,-0.8464,-0.5344,0.0791
15120,-0.8187,-0.5674,0.0562
15140,-0.8291,-0.4833,0.0876
15160,-0.8483,-0.5002,0.1327
15180,-0.9414,-0.4142,0.1167
15200,-0.8828,-0.5029,0.0734
15220,-0.8041,-0.5675,0.0914
15240,-0.8494,-0.4916,0.0856
15260,-0.8796,-0.4836,0.1138
15280,-0.8789,-0.5002,0.0951
15300,-0.8278,-0.5583,0.1093
15320,-0.8383,-0.5632,0.0924
15340,-0.8147,-0.5592,0.0823
15360,-0.8781,-0.5118,0.0879
15380,-0.8489,-0.4945,0.1085
15400,-0.8719,-0.4652,0.1145
15420,-0.8629,-0.5148,0.1099
15440,-0.8525,-0.4991,0.1089
15460,-0.8716,-0.4968,0.1024
15480,-0.8578,-0.4894,0.088
15500,-0.8445,-0.4963,0.0823
15520,-0.8871,-0.4435,0.1326
15540,-0.7997,-0.5828,0.1074
15560,-0.8004,-0.5685,0.127
15580,-0.855,-0.5232,0.1556
15600,-0.9066,-0.4225,0.1473
15620,-0.9152,-0.4114,0.1537
15640,-0.8521,-0.4929,0.1298
15660,-0.8549,-0.4869,0.1425
15680,-0.8459,-0.5055,0.1372
15700,-0.8702,-0.5045,0.1183
15720,-0.856,-0.5038,0.0826
15740,-0.864,-0.4852,0.098
15760,-0.842,-0.5,0.1056
15780,-0.8864,-0.455,0.1052
15800,-0.8988,-0.4534,0.1091
15820,-0.8497,-0.4949,0.0847
15840,-0.9569,-0.4175,0.0914
15860,-0.9246,-0.3875,0.0925
15880,-0.9202,-0.4281,0.0948
15900,-0.8663,-0.4718,0.0991
15920,-0.8867,-0.4391,0.13
15940,-0.9155,-0.4447,0.1012
15960,-0.9126,-0.4551,0.0867
15980,-0.8784,-0.4714,0.0692
16000,-0.8804,-0.4659,0.0787
16020,-0.8999,-0.4235,0.0388
16040,-0.9429,-0.3256,0.0162
16060,-0.9419,-0.3419,0.0483
16080,-0.9268,-0.4203,0.1094
16100,-0.8549,-0.4805,0.1522
16120,-0.8889,-0.4873,0.2469
16140,-0.7434,-0.8108,0.2656
16160,-0.6602,-0.6588,0.3442
16180,-0.8527,-0.3938,0.4708
16200,-0.9355,-0.1555,0.5903
16220,-0.7828,-0.2705,0.5166
16240,-0.6111,-0.4954,0.3778
16260,-0.6772,-0.4344,0.4222
16280,-0.8153,-0.241,0.5143
16300,-0.8708,-0.2528,0.5479
16320,-0.8539,-0.2091,0.5192
16340,-0.8542,-0.3165,0.5098
16360,-0.7654,-0.3951,0.4197
16380,-0.8773,-0.4353,0.5081
16400,-0.7605,-0.3237,0.4451
16420,-0.8046,-0.1847,0.4611
16440,-0.8099,-0.1807,0.4469
16460,-0.7721,-0.2983,0.475
16480,-0.7726,-0.4148,0.4371
16500,-0.7996,-0.4535,0.4427
16520,-0.899,-0.519,0.3826
16540,-0.7821,-0.411,0.2703
16560,-0.8704,-0.4873,0.2003
16580,-0.9059,-0.4814,0.1655
16600,-0.9041,-0.5146,0.0981
16620,-0.8541,-0.485,0.0604
16640,-0.9335,-0.3848,0.0984
16660,-0.9385,-0.4126,0.1306
16680,-0.9283,-0.4086,0.1639
16700,-0.9033,-0.3842,0.1298
16720,-0.8661,-0.4556,0.1289
16740,-0.8965,-0.396,0.1069
16760,-0.9409,-0.3751,0.1931
16780,-0.9247,-0.3276,0.1088
16800,-0.9386,-0.3722,0.1128
16820,-0.9209,-0.3616,0.093
16840,-0.8849,-0.3894,0.1151
16860,-0.905,-0.3822,0.1464
16880,-0.9254,-0.5591,0.1516
16900,-0.7794,-0.3319,0.2279
16920,-0.8529,-0.4081,0.233
16940,-0.8959,-0.4843,0.1886
16960,-0.865,-0.6738,0.1654
16980,-0.7952,-0.6449,0.2434
17000,-0.8856,-0.489,0.2787
17020,-1.1041,-0.4436,0.301
17040,-0.9551,-0.3687,0.2612
17060,-0.7935,-0.4504,0.2239
17080,-0.776,-0.469,0.2693
17100,-0.7344,-0.2546,0.2231
17120,-0.7559,-0.2932,0.3643
17140,-0.8408,-0.2087,0.3354
17160,-0.8999,-0.1925,0.385
17180,-0.8375,-0.2449,0.4591
17200,-0.7946,-0.3434,0.2963
17220,-0.8535,-0.2729,0.2546
17240,-0.7296,-0.4731,0.3422
17260,-1.3188,-0.6731,0.2385
17280,-0.8096,-0.3131,0.1935
17300,-0.9233,-0.2603,0.014
17320,-1.0748,-0.4338,0.0005
17340,-0.8925,-0.5292,0.0503
17360,-0.8092,-0.4568,0.0388
17380,-0.9537,-0.4067,0.0516
17400,-0.9105,-0.34,0.1338
17420,-0.885,-0.3268,0.1276
17440,-1.0004,-0.4572,0.0636
17460,-0.8275,-0.6959,0.1715
17480,-0.7278,-0.4932,0.0477
17500,-0.9965,-0.3025,0.1022
17520,-1.0519,-0.2162,0.1606
17540,-0.9116,-0.3311,0.0979
17560,-0.9176,-0.5095,-0.0469
17580,-0.7812,-0.6084,0.1553
17600,-0.9266,-0.5889,0.1692
17620,-0.8942,-0.4977,0.1288
17640,-0.8619,-0.4791,0.0295
17660,-0.806,-0.434,0.006
17680,-0.89,-0.4301,0.0419
17700,-1.0106,-0.3196,0.0293
17720,-0.9785,-0.2853,0.0273
17740,-0.9922,-0.3873,0.1029
17760,-0.8198,-0.3568,0.1642
17780,-0.7456,-0.4056,0.4623
17800,-1.1725,-0.4885,0.704
17820,-1.1089,-0.3917,0.474
17840,-0.6282,-0.0648,0.4762
17860,-0.739,-0.22,0.2798
17880,-0.978,-0.0514,0.0247
17900,-0.6774,-0.3329,0.4141
17920,-1.0243,-0.5413,0.2449
17940,-1.1897,-0.1526,-0.0005
17960,-0.744,-0.4965,0.1296
17980,-0.5065,-0.7411,-0.1438
18000,-1.4182,-0.5131,0.6075
18020,-1.1493,-0.1455,0.426
18040,-1.121,-0.3615,0.2601
18060,-0.7781,-0.2031,0.0459
18080,-0.9333,-0.7076,0.0948
18100,-0.6697,-0.8043,0.0787
18120,-0.8191,-0.3173,0.1311
18140,-1.0193,-0.3,0.1144
18160,-0.8712,-0.4291,0.0869
18180,-0.7751,-0.4398,0.0577
18200,-0.6869,-0.5463,-0.0435
18220,-0.7736,-0.5206,0.2659
18240,-1.0648,-0.6115,0.7079
18260,-1.3094,-0.3298,0.3573
18280,-0.7711,-0.0101,0.2985
18300,-0.5674,-0.0018,0.3495
18320,-0.6433,-0.0934,0.1981
18340,-0.7595,-0.4025,0.2964
18360,-0.991,-0.4044,0.3777
18380,-0.6427,-0.7148,0.507
18400,-0.674,-0.6584,0.3124
18420,-0.6135,-0.5366,0.2571
18440,-1.5396,-0.7968,0.4718
18460,-0.7671,-0.5804,-0.3464
18480,-0.7693,0.1116,-0.0536
18500,-0.9236,-0.6699,-0.0808
18520,-0.9993,-0.6807,0.0555
18540,-0.8444,-0.6071,-0.015
18560,-0.9189,-0.2805,-0.0303
18580,-0.9287,-0.3381,0.1515
18600,-0.8303,-0.5125,0.1404
18620,-0.7928,-0.6057,0.1215
18640,-0.8091,-0.4232,0.0935
18660,-0.8871,-0.3911,0.1263
18680,-0.9867,-0.224,0.1512
18700,-0.861,-0.2888,0.1365
18720,-1.0931,-0.3683,-0.02
18740,-1.1251,-0.8196,0.0768
18760,-0.6205,-1.0023,0.1018
18780,-1.0636,-0.58,0.1703
18800,-1.0381,-0.4944,0.2267
18820,-0.8098,-0.301,0.0635
18840,-0.5786,-0.3477,0.2301
18860,-0.5867,-0.3689,0.0758
18880,-0.6488,-0.1621,0.2682
18900,-0.8685,-0.1172,0.5172
18920,-1.4482,-0.0708,0.3969
18940,-0.7299,-0.3762,0.6487
18960,-1.0536,-0.8147,0.4498
18980,-0.6989,-0.1857,-0.0054
19000,-0.5004,-0.7235,-0.1106
19020,-1.0914,-0.5773,0.1864
19040,-0.6986,-0.5625,0.1292
19060,-0.7544,-0.4923,0.0979
19080,-0.834,-0.5354,0.2308
19100,-0.7491,-0.5922,0.0824
19120,-0.7964,-0.4583,0.2821
19140,-1.0845,-0.1819,0.0551
19160,-1.277,-0.546,0.0214
19180,-0.7052,-0.8501,0.0194
19200,-0.9885,-0.663,0.5237
19220,-1.1891,-0.5212,0.4642
19240,-1.0149,-0.2373,0.252
19260,-0.5786,-0.3339,0.1235
19280,-0.4207,-0.4872,0.1766
19300,-0.639,-0.3075,0.1757
19320,-0.8341,-0.1786,0.7375
19340,-1.673,-0.3431,0.4337
19360,-0.9786,-0.2952,0.4541
19380,-0.5562,-0.7511,0.3043
19400,-0.8922,-0.2882,-0.1832
19420,-0.6888,-0.7919,-0.1108
19440,-0.9648,-0.5485,0.1343
19460,-0.5747,-0.5546,0.0782
19480,-0.6552,-0.5833,0.0725
19500,-0.9119,-0.4552,0.1132
19520,-0.8005,-0.4475,0.0779
19540,-0.7378,-0.5995,0.203
19560,-0.9351,-0.342,0.1876
19580,-1.045,-0.1554,0.0979
19600,-1.0598,-0.4871,0.1519
19620,-0.851,-1.0894,0.1355
19640,-1.1631,-0.7329,0.0645
19660,-1.1791,-0.472,0.3046
19680,-1.0024,-0.1671,0.1385
19700,-0.4071,-0.4614,0.1285
19720,-0.5359,-0.3553,0.0551
19740,-0.551,-0.34,0.3799
19760,-1.1218,-0.2271,0.3809
19780,-1.3311,-0.0789,0.2385
19800,-1.2726,-0.9867,0.567
19820,-0.7102,-0.222,0.3311
19840,-0.5593,-0.4139,-0.0031
19860,-0.7782,-0.7479,0.0582
19880,-0.741,-0.4774,0.2045
19900,-0.7058,-0.5612,0.1333
19920,-0.7308,-0.4634,-0.0573
19940,-0.8131,-0.5562,0.2023
19960,-0.8008,-0.6108,0.198
19980,-0.9299,-0.3336,0.2019
20000,-0.9786,-0.2651,0.1008
20020,-0.868,-0.5319,0.1637
20040,-0.9043,-0.7942,0.4397
20060,-1.4108,-0.8633,0.049
20080,-1.4312,0.0142,0.4009
20100,-0.6511,-0.1254,0.0321
20120,-0.5299,-0.5249,0.1155
20140,-0.4264,-0.3522,0.1956
20160,-0.6527,-0.1603,0.548
20180,-1.7886,-0.3542,0.6969
20200,-0.8385,-0.0226,0.2634
20220,-0.9368,-0.8781,0.342
20240,-0.7258,-0.1818,0.0164
20260,-0.356,-0.8199,-0.0165
20280,-1.2288,-0.3755,0.2292
20300,-0.7913,-0.3876,0.1649
20320,-0.7509,-0.5653,0.1069
20340,-0.7379,-0.5807,0.2186
20360,-0.7621,-0.4945,0.2312
20380,-0.8,-0.219,0.1779
20400,-0.0334,-1.7961,0.2202
20420,-0.6537,-0.7053,0.1871
20440,0.2002,0.2219,0.0128
20460,0.6973,0.1418,0.1495
20480,-0.1467,-0.1647,0.3224
20500,-3.9995,-3.8383,1.8293
20520,-2.4283,-0.6498,0.0251
20540,-1.0686,-1.2775,0.1954
20560,-0.4226,0.5253,0.8052
20580,-0.4377,0.8947,-0.1632
20600,0.4506,-0.3315,-0.1887
20620,-0.6895,-0.9305,0.6613
20640,-2.3833,-1.3275,2.3254
20660,-0.8907,-0.9651,0.4691
20680,-0.0985,-0.2166,0.0404
20700,0.2169,1.3093,-0.7723
20720,0.236,-0.439,0.2959
20740,-0.7145,-0.8994,0.9353
20760,-2.1234,-0.4045,-0.4821
20780,-1.3481,-1.0582,0.2408
20800,-0.8439,-0.7347,0.1927
20820,-0.0386,0.3132,-0.4381
20840,-0.2876,1.7305,-0.665
20860,0.0684,-0.5107,0.0898
20880,-3.9995,-3.9995,1.708
20900,-1.493,-0.7942,0.821
20920,-0.9894,-0.7006,0.5347
20940,-0.2623,0.4969,-0.2244
20960,0.7706,0.665,-0.8568
20980,0.0632,-1.0865,-0.1653
21000,-3.7495,-3.6691,3.9995
21020,-2.7255,-0.5686,0.0675
21040,-0.4409,0.1135,-0.0592
21060,0.0198,0.4062,0.3781
21080,-0.45,0.7218,-0.0029
21100,0.0631,-0.1277,-0.1479
21120,-3.9995,-3.4398,3.6195
21140,-1.3459,-0.6779,1.2188
21160,-0.9281,-0.2976,0.2065
21180,-0.4023,0.2065,0.0144
21200,0.7421,0.9696,-0.71
21220,0.2843,-0.0703,0.3065
21240,-0.2744,-2.4543,-0.7476
21260,-3.207,-0.0277,0.1006
21280,-0.7395,-1.958,0.047
21300,-0.7468,0.0833,0.1738
21320,-0.5232,0.9799,0.283
21340,0.2981,2.1432,-0.8107
21360,0.3442,-0.9016,-0.4918
21380,-1.9165,-2.2108,0.3322
21400,-0.9907,-1.6189,0.5715
21420,-1.899,-0.568,0.4066
21440,0.0587,-0.0048,0.1019
21460,0.3735,0.5414,-0.4125
21480,0.4874,0.2336,0.5088
21500,-0.9928,-1.6742,0.3889
21520,-2.5236,-0.212,0.1366
21540,-1.0863,-0.3489,0.2758
21560,0.3081,0.1222,0.1631
21580,-0.6071,0.14,-0.0996
21600,0.0649,1.5123,0.1654
21620,-0.3722,-0.428,-0.3724
21640,-1.0872,-2.5568,1.0261
21660,-1.3652,-0.4835,0.5549
21680,-0.6469,-0.224,0.04
21700,0.1517,0.4003,-0.3556
21720,1.0131,0.897,0.2562
21740,-0.6638,-0.5959,0.0627
21760,-3.9297,-1.7074,1.3007
21780,-2.3246,-0.6671,-0.1058
21800,-0.2971,0.1522,0.0201
21820,0.3824,-0.1129,0.3076
21840,-0.4054,0.6871,0.2239
21860,-0.0714,0.1005,0.1538
21880,-2.964,-1.7389,-0.4075
21900,-1.4189,-1.1345,0.5629
21920,-0.8905,-0.7341,0.411
21940,-0.3462,0.2803,-0.2612
21960,0.7147,0.6871,-0.8704
21980,0.186,-0.5659,0.5624
22000,-3.2506,-2.4661,-1.1877
22020,-2.0387,-0.2358,0.1329
22040,-1.3514,-1.3936,0.0298
22060,-0.6187,0.1421,-0.4335
22080,0.257,-0.3031,1.2214
22100,0.1788,0.387,-0.9351
22120,-0.1022,-0.1854,-0.4603
22140,-3.9995,-3.9995,1.7161
22160,-1.3828,-0.2856,1.266
22180,-0.9105,-0.0118,-0.0236
22200,0.0525,0.4377,-0.6222
22220,0.9218,0.5492,-0.6237
22240,0.1863,-0.076,0.7378
22260,-3.9995,-1.9258,1.7935
22280,-0.7297,-0.5894,0.0782
22300,-0.3964,0.8329,0.7438
22320,-1.0593,1.2117,-0.4553
22340,0.9089,0.1134,0.048
22360,-1.4584,-1.1625,-0.3369
22380,-1.0112,-1.516,-0.3064
22400,0.1515,-0.6002,0.0981
22420,0.6626,0.1611,-0.5356
22440,0.3621,0.9386,0.1234
22460,-3.9995,-3.9995,3.8984
22480,-1.5132,-0.3389,0.2161
22500,-0.4603,-0.1765,-0.0377
22520,-0.6318,0.1195,-0.5598
22540,0.2573,1.3323,0.238
22560,-0.8822,-0.4385,-0.2545
22580,-1.4731,-0.9749,1.2494
22600,-0.2355,-0.6157,0.0291
22620,0.3065,-0.0974,-0.2874
22640,0.4136,0.6923,-0.1132
22660,-1.1451,-2.0009,0.6267
22680,-2.5831,-0.7435,-0.083
22700,-0.5137,-0.0369,0.0709
22720,-0.5555,0.8676,-0.3992
22740,-0.3263,1.0223,-0.7815
22760,-0.2731,-1.4027,1.1412
22780,-2.0635,-1.1111,1.2708
22800,-0.6721,-0.9989,0.3347
22820,-0.1971,-0.1604,-0.1713
22840,0.5906,0.5916,-0.6597
22860,0.2339,-0.2449,0.3523
22880,-2.7362,-3.1686,0.3562
22900,-1.6776,0.0358,0.3145
22920,-1.0422,-0.8918,-0.1591
22940,-0.3845,-0.033,0.7238
22960,0.1176,0.4148,0.8119
22980,-0.0159,1.2383,-1.5591
23000,-0.2903,-0.5719,-0.2892
23020,-2.679,-2.8312,0.8914
23040,-1.7401,-0.7854,0.8314
23060,-1.136,-0.7487,0.1802
23080,-0.168,0.1541,-0.2274
23100,0.6774,0.2847,-0.083
23120,-0.0358,0.1567,0.115
23140,-1.3674,-2.5385,-1.0627
23160,-1.6764,0.0385,-0.2129
23180,-1.5824,-0.9132,-0.1191
23200,-0.7765,-0.9104,0.4233
23220,-0.3882,0.1813,0.1344
23240,-0.2618,0.4302,0.0958
23260,0.0337,1.3467,-0.4231
23280,-0.2721,-1.1184,0.1707
23300,-1.239,-1.4043,0.7706
23320,-1.5052,-0.8666,0.6129
23340,-0.873,-0.2605,0.3494
23360,0.178,0.7137,-0.1158
23380,1.1455,0.8181,0.3508
23400,-0.6576,0.2573,0.4155
23420,-0.7377,-3.6699,-0.2997
23440,-2.1915,-0.0012,-0.1017
23460,-0.866,-1.1486,-0.2708
23480,-0.9684,-0.5103,0.3499
23500,-0.5577,0.5615,0.4753
23520,-0.597,0.6505,-0.4246
23540,0.5653,0.094,0.2335
23560,-2.0135,-0.8335,-0.2168
23580,-1.1171,-1.8928,0.6039
23600,-1.1854,-0.7208,0.3458
23620,-0.5039,0.0243,0.0208
23640,0.5764,0.1549,-0.2684
23660,0.1265,0.2277,0.3756
23680,-0.769,-0.4149,-0.0896
23700,-3.7461,-3.9995,-0.3474
23720,-0.9613,-0.1959,-0.4314
23740,-1.1963,-1.3793,-0.0959
23760,-0.8931,0.3739,0.1603
23780,0.0098,1.0096,0.0767
23800,0.329,1.3954,-0.5269
23820,-0.702,-0.5105,-0.1501
23840,-2.8417,-3.9995,2.4958
23860,-1.8024,-0.7224,0.8024
23880,-1.1542,-0.2491,0.205
23900,-0.0297,0.0591,-0.2869
23920,1.0785,0.7717,-0.3638
23940,-0.024,-0.016,0.4099
23960,-1.3011,-1.2754,0.2599
23980,-1.9858,-0.0431,-0.1716
24000,-2.3085,-0.2351,0.0192
24020,-0.6459,-1.0905,0.2434
24040,-0.3256,0.5039,0.4858
24060,-0.4379,0.4603,-0.0101
24080,0.3975,1.0588,-0.2117
24100,-0.7654,-0.627,-0.3718
24120,-2.5641,-3.4158,3.9666
24140,-1.567,-0.6818,0.5621
24160,-0.9631,-0.1995,0.3634
24180,-0.0132,0.2599,-0.3888
24200,1.038,0.6528,-0.2137
24220,0.1428,0.3677,0.3809
24240,-1.4036,-2.3794,-1.704
24260,-1.694,-0.061,0.3746
24280,-1.35,-1.4547,-0.6157
24300,-0.6036,-0.2512,0.3416
24320,0.048,0.0919,0.4489
24340,-0.7428,0.637,-1.0513
24360,-0.0157,0.0625,0.3154
24380,-1.8663,-0.5148,0.2529
24400,-0.7291,-2.6509,0.5455
24420,-1.1044,-1.0568,0.295
24440,-0.5294,0.0657,0.2856
24460,0.4897,0.0339,-0.2958
24480,0.6715,0.3474,0.3296
24500,-1.2107,-0.0103,0.4301
24520,-3.1111,-1.1666,0.5264
24540,-1.4238,-0.3173,0.0408
24560,-0.959,-0.3281,0.2407
24580,0.2422,-0.7529,1.1583
24600,-0.5374,0.3394,-0.8173
24620,0.448,1.0355,-0.1033
24640,-1.0277,-0.3751,-0.4441
24660,-2.5769,-3.9995,2.3114
24680,-1.2664,-0.8384,0.4996
24700,-0.8441,0.0701,0.2382
24720,0.1073,0.0251,-0.3567
24740,0.9709,0.1591,-0.0692
24760,-0.2272,0.2266,0.4463
24780,-1.0862,-3.0758,-0.2374
24800,-1.6084,-0.5491,0.8865
24820,-1.1906,-1.4517,-0.0012
24840,-0.4995,-0.3619,0.324
24860,-0.3629,0.5856,0.644
24880,-0.0736,0.746,-0.5533
24900,0.1943,-0.2937,-0.0342
24920,-2.8018,-0.6605,0.8243
24940,-2.0472,-0.8826,0.9109
24960,-1.1195,-0.7897,0.4385
24980,-0.4299,-0.0284,-0.219
25000,0.2208,0.2225,-0.2548
25020,0.5298,0.0454,-0.0153
25040,-0.7538,-0.0458,0.265
25060,-3.9142,-3.9995,0.9381
25080,-1.3876,-0.2625,0.2841
25100,-1.3696,-1.5002,-0.0099
25120,-0.9309,-0.5189,0.3365
25140,-0.201,0.1456,0.6533
25160,-0.2899,0.7706,-0.4907
25180,0.1885,-0.1357,0.548
25200,-2.6895,-1.0526,-0.1343
25220,-1.4717,-1.6548,0.8247
25240,-1.0479,-0.9689,0.4192
25260,-0.2499,0.0541,0.0499
25280,0.3605,0.5461,-0.4285
25300,0.35,0.2526,0.3849
25320,-1.1492,-0.5541,-0.002
25340,-1.689,-0.7095,0.2478
25360,-1.9889,-0.8463,-0.0764
25380,-1.0034,-1.3978,0.3297
25400,-0.5305,-0.1996,0.1257
25420,-0.0156,0.5575,0.6086
25440,-0.3848,0.8402,-0.142
25460,-0.3036,-0.2433,0.5624
25480,-2.8158,-1.0691,-0.5894
25500,-1.2737,-1.6969,0.0808
25520,-1.2073,-1.0535,0.278
25540,-0.3815,-0.4315,0.2148
25560,0.3118,0.1597,-0.0316
25580,0.3929,0.4973,-0.0066
25600,-1.17,-0.1177,1.6689
25620,0.4189,-1.7175,-0.3247
25640,-1.3097,0.7522,0.3718
25660,-0.9178,-1.2828,-0.0139
25680,-0.7462,-0.6816,0.0823
25700,-0.8157,-0.5125,0.3711
25720,-0.8361,-0.3312,0.2896
25740,-1.2175,0.0184,-0.0927
25760,-0.7151,-0.4685,0.3982
25780,-0.5205,-0.7416,0.1097
25800,-0.4836,-0.7511,0.2096
25820,-0.9052,-0.3674,0.386
25840,-0.9265,-0.3833,0.4459
25860,-0.8018,-0.4341,0.3799
25880,-0.7615,-0.4204,0.3766
25900,-0.8663,-0.4589,0.3518
25920,-0.7761,-0.5464,0.3466
25940,-0.7775,-0.5385,0.3025
25960,-0.8269,-0.4463,0.2612
25980,-0.8042,-0.5291,0.2513
26000,-0.7997,-0.5356,0.292
26020,-0.7931,-0.5229,0.2791
26040,-0.8053,-0.5208,0.28
26060,-0.8186,-0.5208,0.2778
26080,-0.8027,-0.5413,0.2634
26100,-0.7848,-0.5048,0.2726
26120,-0.8127,-0.4718,0.2687
26140,-0.8212,-0.4908,0.266
26160,-0.8097,-0.5482,0.3027
26180,-0.7889,-0.541,0.2888
26200,-0.8156,-0.5233,0.2832
26220,-0.8232,-0.4806,0.2834
26240,-0.7896,-0.5004,0.2797
26260,-0.7905,-0.5009,0.2903
26280,-0.803,-0.5062,0.3098
26300,-0.8044,-0.5247,0.304
26320,-0.8033,-0.5439,0.2948
26340,-0.7971,-0.5271,0.3
26360,-0.8123,-0.5013,0.2842
26380,-0.7991,-0.4968,0.2906
26400,-0.793,-0.4863,0.2931
26420,-0.8164,-0.4512,0.3389
26440,-0.7793,-0.3595,0.4075
26460,-0.6062,-0.0249,0.2644
26480,-0.2517,-0.1395,0.3987
26500,-2.0181,-0.7754,-0.0969
26520,-1.3403,-1.2813,0.249
26540,-1.0706,-1.2515,0.045
26560,-0.5917,0.0159,-0.3311
26580,-0.4016,0.4945,0.3563
26600,-0.4933,0.4729,-0.0419
26620,-1.5942,-2.4503,1.4203
26640,-0.954,-3.0566,0.5515
26660,-0.809,-0.943,0.3682
26680,-0.8162,-0.5171,0.2113
26700,-0.389,0.4456,-0.3054
26720,0.7592,1.0001,-0.4146
26740,-0.6469,-0.0079,0.5885
26760,-1.8846,-2.0435,-0.3674
26780,-1.71,-0.1187,0.1006
26800,-1.1602,-1.8877,0.193
26820,-0.7887,-1.1346,0.2987
26840,-0.7059,-0.1288,0.1259
26860,0.0074,1.1234,-0.0369
26880,-0.603,0.6266,-0.3521
26900,-0.1664,0.1044,1.1274
26920,-2.2168,-3.8459,1.2607
26940,-1.1807,-1.2268,0.447
26960,-1.2357,-0.8241,0.3109
26980,-0.2806,-0.1233,0.2196
27000,0.1571,0.2902,-0.2804
27020,-0.0005,0.5101,0.2063
27040,-0.6772,-0.8303,0.556
27060,-0.8834,-0.5615,-0.1146
27080,-1.4054,-1.2314,-0.0797
27100,-0.9209,-1.1709,0.3544
27120,-0.3416,0.1675,0.7067
27140,-0.0872,0.3616,0.7112
27160,-0.4119,0.6532,-0.587
27180,-0.5964,-0.3824,0.8815
27200,-2.0402,-3.9995,0.7469
27220,-1.3392,-1.22,0.3424
27240,-1.0853,-0.5581,0.1665
27260,-0.4937,0.0388,0.0684
27280,0.2693,0.3347,-0.3807
27300,-0.1534,0.577,0.308
27320,-0.4834,-0.0203,0.4904
27340,-3.0754,-3.5116,-0.0908
27360,-1.7701,-0.4608,0.078
27380,-0.8838,-1.8922,0.1028
27400,-0.8479,-0.4962,0.119
27420,-0.4635,0.347,0.4955
27440,-1.0354,1.0934,-0.8938
27460,0.0238,0.8491,0.0601
27480,-1.0065,-0.8719,-0.1722
27500,-1.6423,-3.0961,-0.1561
27520,-1.4767,-0.5327,0.8053
27540,-1.2679,-0.9039,0.1373
27560,-0.1567,-0.506,-0.0255
27580,0.2921,-0.0192,-0.1017
27600,0.3093,0.4926,0.0446
27620,-0.3134,-0.2229,-0.3314
27640,-3.4655,-1.5878,0.0486
27660,-1.7104,0.0405,0.0027
27680,-1.2587,-1.9412,-0.2727
27700,-0.4354,-0.9204,0.0774
27720,-0.4093,0.1982,0.4677
27740,-0.4288,0.9233,-0.0132
27760,-0.2427,0.3833,-0.4941
27780,-0.3842,-0.6957,0.3225
27800,-2.0378,-3.986,0.1616
27820,-1.0211,-1.5547,0.1522
27840,-1.0323,-0.3132,0.0325
27860,-0.4451,0.4558,0.2921
