timestamp,ax,ay,az
0,-0.8544,-0.3517,-0.2366
20,-0.9983,-0.3451,-0.3599
40,-0.8461,-0.0267,-0.1241
60,-1.009,-0.1556,0.0381
80,-1.0533,-0.1003,-0.0385
100,-0.7802,0.0181,-0.0746
120,-0.9116,-0.0961,-0.0493
140,-1.067,-0.1538,-0.0245
160,-0.9882,-0.2714,-0.0098
180,-0.9611,-0.1364,0.0577
200,-1.0129,0.0042,0.0852
220,-1.0322,-0.0146,0.0236
240,-1.0028,-0.0634,-0.007
260,-1.0331,-0.0276,-0.0697
280,-0.9514,0.087,0.0399
300,-0.9414,0.2017,0.0409
320,-1.0441,0.201,0.0193
340,-1.0785,0.1501,-0.1915
360,-0.9819,0.1924,-0.2847
380,-0.8545,0.1559,-0.2178
400,-0.79,0.1687,-0.1233
420,-0.8853,0.272,0.0312
440,-1.036,0.3502,0.2179
460,-1.0839,0.3162,-0.0109
480,-0.9672,0.1334,0.0573
500,-0.9181,0.1833,-0.0477
520,-1.0674,0.0984,0.1879
540,-1.0253,0.1992,0.1227
560,-0.9827,0.2035,0.1073
580,-0.9967,0.1559,0.1423
600,-0.9836,0.1295,0.0762
620,-0.9655,0.1099,0.0516
640,-0.942,0.1456,0.1257
660,-0.9792,0.1613,0.1133
680,-0.9569,1.0231,-1.259
700,-0.9652,0.0774,-0.1199
720,-1.0266,0.2317,0.1716
740,-0.9897,0.1907,0.1683
760,-0.9779,0.1798,0.1031
780,-0.8989,0.1351,0.1619
800,-0.9663,0.1078,0.093
820,-0.9548,0.1515,0.0845
840,-0.9625,0.1656,0.1012
860,-1.0048,0.1307,0.0101
880,-0.9816,0.116,0.0168
900,-0.98,0.0747,-0.0181
920,-0.9949,0.1333,0.0642
940,-1.0006,0.1212,0.002
960,-1.0591,0.0978,0.0325
980,-1.2565,0.0378,0.0154
1000,-0.8291,0.0221,0.4403
1020,-0.9087,-0.0828,0.0977
1040,-1.0803,-0.1841,0.0543
1060,-0.8785,0.0426,0.2391
1080,-0.9073,-0.1528,0.093
1100,-0.9917,0.0829,0.3948
1120,-0.8372,-0.4579,0.0656
1140,-0.9459,-0.1923,0.1658
1160,-0.976,-0.2523,-0.0017
1180,-1.0389,0.0731,0.0409
1200,-0.7255,-0.6428,-0.2509
1220,-1.2186,-0.113,0.1163
1240,-0.6982,-0.5961,-0.0474
1260,-0.8738,-0.0763,-0.0398
1280,-0.9297,-0.2262,-0.1959
1300,-0.8882,-0.2612,-0.0417
1320,-1.0107,-0.1877,-0.1652
1340,-0.9724,-0.2485,-0.001
1360,-0.9767,-0.2887,-0.0712
1380,-1.0508,-0.2799,-0.0177
1400,-1.0806,-0.4635,0.3579
1420,-1.1813,-0.1816,-0.1384
1440,-0.9077,-0.1443,-0.1506
1460,-0.916,-0.228,0.0433
1480,-1.3405,-0.0887,-0.0815
1500,-0.6173,-0.0493,-0.0217
1520,-1.016,-0.1146,0.0011
1540,-1.0831,-0.2476,0.0167
1560,-1.032,-0.2054,0.0709
1580,-0.9421,-0.1213,-0.0732
1600,-0.9374,-0.2241,-0.0172
1620,-1.0016,-0.1981,0.0571
1640,-1.0891,-0.1692,0.0726
1660,-1.0658,-0.2291,-0.0037
1680,-0.8319,-0.1655,0.1023
1700,-1.0072,-0.2313,0.129
1720,-0.9751,-0.163,0.0753
1740,-0.9994,-0.1754,0.0295
1760,-0.9233,-0.1632,0.0507
1780,-0.9949,-0.1046,0.0638
1800,-1.0128,-0.1993,0.1106
1820,-1.0074,-0.0823,0.048
1840,-0.8778,-0.1418,0.1432
1860,-1.0515,-0.0684,0.0447
1880,-1.0303,-0.1599,0.1305
1900,-0.9683,-0.0847,-0.0045
1920,-0.9989,-0.0973,0.0138
1940,-1.0242,-0.1372,-0.0413
1960,-1.0408,-0.1855,0.0474
1980,-0.8929,-0.1501,0.054
2000,-0.9806,-0.1996,0.0575
2020,-0.9899,-0.2454,0.0513
2040,-0.9828,-0.0386,-0.0901
2060,-0.9469,0.0259,-0.1176
2080,-1.0824,-0.1053,0.04
2100,-0.9283,-0.0625,-0.1594
2120,-1.0452,-0.0596,-0.1921
2140,-0.9967,-0.1432,-0.0063
2160,-0.5275,-0.2534,-0.1311
2180,-1.1658,-0.3311,-0.2665
2200,-0.8862,-0.3203,-0.0908
2220,-0.9368,-0.2896,-0.0214
2240,-1.1208,-0.1544,0.0795
2260,-1.0719,0.0332,0.085
2280,-0.748,0.0569,0.1785
2300,-1.1057,-0.1332,0.2279
2320,-0.9932,0.0548,0.1432
2340,-0.9132,-0.005,0.0754
2360,-1.1798,-0.1669,0.1625
2380,-0.8436,-0.1486,0.1696
2400,-0.8918,-0.187,-0.0371
2420,-0.832,-0.1963,0.4464
2440,-0.9296,-0.2269,0.0317
2460,-0.8873,-0.3066,0.0875
2480,-1.0852,-0.3927,0.0146
2500,-0.7874,-0.1475,0.2352
2520,-1.2167,-0.2321,0.0172
2540,-1.0686,-0.1224,0.0508
2560,-1.0367,0.1255,0.2085
2580,-1.2466,-0.1544,-0.0288
2600,-1.0339,-0.2173,-0.2229
2620,-1.0188,-0.2073,0.1897
2640,-0.9512,-0.1588,-0.028
2660,-0.986,-0.2773,-0.0636
2680,-0.8485,-0.4127,-0.0148
2700,-0.8313,-0.2316,-0.0779
2720,-0.9745,-0.3468,0.0912
2740,-0.9904,-0.3527,0.1179
2760,-0.9773,-0.3431,0.0374
2780,-0.9674,-0.3735,0.0363
2800,-1.0083,-0.3726,-0.0779
2820,-0.9045,-0.2754,-0.0652
2840,-0.9406,-0.2714,-0.2018
2860,-0.9366,-0.317,-0.0229
2880,-0.937,-0.2711,-0.0181
2900,-0.9358,-0.2775,-0.0804
2920,-0.9597,-0.2611,-0.0613
2940,-0.9579,-0.2657,-0.2041
2960,-0.9922,-0.21,-0.0862
2980,-1.0103,-0.2063,-0.0642
3000,-0.9473,-0.1598,-0.0458
3020,-0.948,-0.1836,-0.0709
3040,-0.998,-0.1876,-0.0616
3060,-0.9987,-0.1569,-0.0205
3080,-0.9769,-0.1897,-0.066
3100,-0.9735,-0.1689,-0.0502
3120,-0.7407,-0.196,0.0203
3140,-0.5404,-0.0667,0.0404
3160,-0.8989,-0.0625,0.0212
3180,-1.8557,-0.1879,-0.2229
3200,-0.9648,-0.1858,0.094
3220,-0.9982,-0.0343,0.1512
3240,-1.006,-0.0581,0.1328
3260,-1.0497,-0.0573,0.0764
3280,-1.0,-0.0864,0.1301
3300,-0.9873,0.1002,0.1226
3320,-0.9563,0.0919,-0.053
3340,-0.9966,0.2139,0.1305
3360,-0.938,0.1917,0.0223
3380,-0.9424,0.1311,-0.0184
3400,-1.0148,0.229,0.0798
3420,-0.9866,0.2058,0.1257
3440,-0.9895,0.2128,0.1862
3460,-0.9177,0.1877,0.1527
3480,-0.9302,0.2084,0.1974
3500,-0.9856,0.2031,0.15
3520,-0.9919,0.2133,0.2045
3540,-0.953,0.2025,0.2361
3560,-0.9473,0.2291,0.214
3580,-0.9677,0.2111,0.2133
3600,-0.9553,0.1978,0.201
3620,-0.9635,0.2047,0.1783
3640,-0.9592,0.193,0.1823
3660,-0.9613,0.2013,0.2028
3680,-0.9594,0.1919,0.1953
3700,-0.9524,0.1996,0.2211
3720,-0.9539,0.1901,0.2206
3740,-0.9558,0.1737,0.2242
3760,-0.9529,0.183,0.2129
3780,-0.9603,0.1837,0.1981
3800,-0.9651,0.1761,0.1809
3820,-0.9679,0.1809,0.1819
3840,-0.9694,0.1912,0.1799
3860,-0.9677,0.1835,0.1896
3880,-0.9635,0.1799,0.1959
3900,-0.9556,0.1791,0.1899
3920,-0.9686,0.1768,0.1809
3940,-0.9609,0.1731,0.1812
3960,-0.9696,0.1777,0.187
3980,-0.9591,0.1816,0.1924
4000,-0.9695,0.1743,0.1848
4020,-0.9602,0.1761,0.1934
4040,-0.947,0.1744,0.1936
4060,-0.9731,0.1794,0.1871
4080,-0.9688,0.1826,0.1823
4100,-0.9641,0.1858,0.1843
4120,-0.9545,0.1973,0.1906
4140,-0.9586,0.1918,0.1873
4160,-0.957,0.1953,0.1871
4180,-0.9556,0.2106,0.1798
4200,-0.9688,0.2019,0.1718
4220,-0.9604,0.2012,0.1768
4240,-0.9614,0.2125,0.1846
4260,-0.9536,0.2106,0.1783
4280,-0.9675,0.1968,0.1759
4300,-0.9615,0.1991,0.187
4320,-0.9509,0.1925,0.183
4340,-0.9662,0.1869,0.1783
4360,-0.9609,0.1926,0.1759
4380,-0.9586,0.2042,0.1805
4400,-0.9601,0.191,0.1792
4420,-0.9587,0.1919,0.188
4440,-0.9626,0.1951,0.1808
4460,-0.9562,0.1891,0.1815
4480,-0.9611,0.1902,0.1752
4500,-0.9652,0.1929,0.1705
4520,-0.9591,0.191,0.1718
4540,-0.9598,0.188,0.1653
4560,-0.9545,0.1832,0.1766
4580,-0.9734,0.187,0.1698
4600,-0.9612,0.1862,0.1699
4620,-0.9539,0.1901,0.1687
4640,-0.9786,0.2034,0.1503
4660,-0.9707,0.188,0.1581
4680,-0.9656,0.1846,0.1667
4700,-0.9524,0.196,0.1704
4720,-0.9719,0.1948,0.1696
4740,-0.9591,0.1971,0.1704
4760,-0.96,0.1948,0.1725
4780,-0.9669,0.202,0.1688
4800,-0.9576,0.197,0.1626
4820,-0.9745,0.1924,0.1707
4840,-0.949,0.2079,0.174
4860,-0.9612,0.2039,0.1742
4880,-0.9623,0.199,0.1637
4900,-0.9602,0.2094,0.1542
4920,-0.9546,0.2,0.1819
4940,-0.9658,0.2085,0.1707
4960,-0.9806,0.2047,0.1682
4980,-0.9783,0.2057,0.1696
5000,-0.9365,0.1929,0.1995
5020,-0.9607,0.1898,0.1929
5040,-0.9493,0.187,0.1942
5060,-0.9569,0.1945,0.1736
5080,-0.9601,0.1809,0.1864
5100,-0.9393,0.1855,0.1915
5120,-0.9406,0.2129,0.208
5140,-0.96,0.2117,0.2112
5160,-0.9567,0.1731,0.1592
5180,-0.9816,0.0712,0.1935
5200,-0.9553,0.278,0.1826
5220,-0.9312,0.1722,0.2386
5240,-1.0016,0.1621,0.1425
5260,-0.9387,0.2317,0.1962
5280,-0.9468,0.2074,0.2194
5300,-0.9684,0.2,0.1863
5320,-0.9819,0.2046,0.1578
5340,-0.9424,0.2091,0.1168
5360,-0.9595,0.2606,0.1621
5380,-1.0828,0.1578,0.1959
5400,-0.8003,0.2965,0.2958
5420,-0.9976,0.3024,0.2617
5440,-0.9574,0.1033,0.2573
5460,-0.9489,0.2156,0.1882
5480,-0.9163,0.2019,0.2008
5500,-0.948,0.2543,0.3062
5520,-0.9474,0.2286,0.2421
5540,-0.9261,0.2493,0.1823
5560,-0.9082,0.2998,0.2208
5580,-0.9139,0.218,0.1154
5600,-0.9706,0.2874,0.2117
5620,-1.046,0.2444,0.1536
5640,-0.8306,0.5614,0.3416
5660,-1.006,0.212,0.1189
5680,-0.9481,0.3463,0.0952
5700,-0.9022,0.2186,0.2164
5720,-0.9814,0.3274,0.2177
5740,-0.9441,0.3552,0.2867
5760,-0.9424,0.3097,0.1921
5780,-0.9302,0.2706,0.1045
5800,-0.9336,0.2487,0.1251
5820,-0.9465,0.2816,0.1747
5840,-0.9476,0.4395,0.0808
5860,-0.9899,0.3955,0.2642
5880,-0.9297,0.2599,0.0558
5900,-0.8971,0.3174,0.2192
5920,-0.9802,0.2573,0.1592
5940,-0.9159,0.335,0.2626
5960,-0.9211,0.2676,0.2181
5980,-0.9729,0.2786,0.1129
6000,-0.9193,0.2627,0.1401
6020,-0.9349,0.28,0.1599
6040,-0.9645,0.3024,0.1467
6060,-1.2629,0.2156,0.3254
6080,-0.8903,0.4857,0.3518
6100,-0.9456,0.224,0.14
6120,-0.8469,0.2407,0.155
6140,-0.9298,0.2706,0.1532
6160,-0.8971,0.3593,0.3199
6180,-0.9755,0.3955,0.3052
6200,-1.002,0.3481,0.2042
6220,-0.9031,0.2163,0.0865
6240,-0.9299,0.3224,0.2605
6260,-0.8622,0.292,0.1294
6280,-1.0077,0.2297,-0.079
6300,-0.891,0.0542,0.4939
6320,-0.8774,0.2538,0.5651
6340,-0.984,0.2125,0.1765
6360,-0.8789,0.1564,0.1766
6380,-0.9778,0.1525,0.0042
6400,-0.9059,0.3457,0.3115
6420,-0.9388,0.2706,0.2694
6440,-0.9403,0.2833,0.1385
6460,-0.9302,0.2513,0.1543
6480,-0.9523,0.2535,0.1802
6500,-0.9469,0.262,0.187
6520,-0.9327,0.2976,0.2544
6540,-0.9473,0.2639,0.1945
6560,-0.9866,0.2325,0.111
6580,-0.9503,0.2693,0.2251
6600,-0.8844,0.6851,0.1859
6620,-0.9296,0.2218,0.2225
6640,-0.9772,0.2062,0.1356
6660,-0.9359,0.2924,0.068
6680,-0.8961,0.3076,0.2439
6700,-0.9515,0.3286,0.2382
6720,-0.9395,0.2916,0.0743
6740,-0.9137,0.3268,0.033
6760,-0.952,0.2494,0.1194
6780,-0.9258,0.3342,0.1383
6800,-0.9324,0.3357,0.2549
6820,-0.942,0.2212,0.3101
6840,-0.8624,0.1554,0.235
6860,-0.9756,0.0629,0.0713
6880,-1.0648,0.0139,0.0066
6900,-1.0247,0.0947,0.1565
6920,-0.9594,0.1133,0.2894
6940,-0.9839,0.0844,0.1747
6960,-1.0177,0.1073,0.0466
6980,-1.0188,-0.0282,0.1982
7000,-1.0142,0.2291,0.3394
7020,-0.9025,0.0367,0.2115
7040,-0.9191,0.1643,0.379
7060,-1.0103,0.1793,0.2428
7080,-1.0299,0.3589,0.132
7100,-0.8799,0.1676,0.3208
7120,-0.9426,0.3682,0.2146
7140,-0.9346,0.3459,0.2211
7160,-0.8649,0.3282,0.1917
7180,-0.8153,0.3541,0.2407
7200,-0.8169,0.4092,0.2014
7220,-0.8099,0.3378,0.1434
7240,-0.8522,0.4109,0.349
7260,-0.8058,0.4363,0.4685
7280,-0.8287,0.4198,0.3013
7300,-0.8799,0.3118,0.2606
7320,-1.2688,0.5596,0.6577
7340,-0.8458,0.3848,0.3029
7360,-0.9094,0.1561,0.0864
7380,-1.0494,0.0691,0.1552
7400,-1.0145,-0.004,-0.0396
7420,-0.8755,-0.0001,0.2345
7440,-1.0009,0.0142,0.2848
7460,-0.9517,-0.0171,0.2063
7480,-0.9541,0.0317,0.1017
7500,-1.0222,0.0966,-0.2067
7520,-1.0455,0.127,-0.0582
7540,-0.9425,0.1401,-0.001
7560,-0.9812,0.083,0.0061
7580,-0.9363,0.1371,0.0504
7600,-0.9435,0.0771,-0.1222
7620,-1.0397,0.0205,-0.1223
7640,-1.2073,-0.0859,-0.0294
7660,-1.3578,0.037,0.3403
7680,-1.1565,-0.1035,0.4341
7700,-0.7834,0.0326,0.5521
7720,-1.0388,0.1625,0.2975
7740,-1.2167,0.0989,-0.1418
7760,-1.0197,-0.0123,-0.2386
7780,-0.682,0.2527,0.1504
7800,-0.7263,0.1051,-0.0389
7820,-0.7347,0.3158,0.0101
7840,-0.8816,0.3965,-0.0782
7860,-1.3481,0.3079,-0.1616
7880,-0.744,0.2637,0.0968
7900,-1.4203,0.076,0.4249
7920,-1.0178,-0.0345,0.0753
7940,-0.5571,-0.1589,0.1444
7960,-1.1964,-0.0056,0.0702
7980,-1.0057,0.0498,0.0505
8000,-0.7651,0.0143,0.1776
8020,-0.8888,-0.004,0.1005
8040,-0.9741,-0.0199,0.2344
8060,-0.9783,0.0289,0.196
8080,-0.9497,-0.0308,0.1968
8100,-0.9945,0.0531,-0.199
8120,-1.2683,-0.0123,-0.1454
8140,-1.2739,-0.1483,0.4377
8160,-0.9497,-0.0686,0.5143
8180,-1.14,0.1224,0.5845
8200,-1.1609,0.1299,-0.0469
8220,-0.8987,0.072,-0.0956
8240,-0.7106,0.1974,0.1637
8260,-0.5654,0.1869,-0.04
8280,-0.6638,0.3107,-0.1991
8300,-1.2997,0.3365,-0.1783
8320,-1.0398,0.3409,0.1707
8340,-1.6489,-0.1241,0.6927
8360,-0.7369,0.3628,0.0544
8380,-0.6161,-0.386,0.038
8400,-1.2711,0.0289,0.2031
8420,-1.1292,0.0092,0.026
8440,-0.953,-0.0204,0.2578
8460,-0.8763,-0.1744,0.2213
8480,-0.8854,-0.0972,0.1487
8500,-0.9141,-0.0563,0.1377
8520,-0.9751,0.0752,0.0891
8540,-1.0903,0.0419,-0.2136
8560,-1.1284,0.0648,0.0205
8580,-1.0201,0.0437,-0.0037
8600,-0.8718,-0.0026,0.0735
8620,-0.9193,0.0841,0.075
8640,-1.3909,0.2072,0.4846
8660,-1.1949,0.3562,-0.1245
8680,-0.8516,-0.0048,-0.0908
8700,-0.7795,0.094,-0.031
8720,-0.7205,0.0547,-0.1382
8740,-0.7693,0.2863,-0.1815
8760,-1.2355,-0.062,-0.1229
8780,-0.9387,0.1669,-0.0527
8800,-1.5216,-0.1545,0.5289
8820,-1.005,-0.1362,0.2593
8840,-0.5602,-0.5551,0.0449
8860,-1.177,-0.1094,0.223
8880,-1.1311,0.021,0.1538
8900,-0.7925,0.0502,0.0359
8920,-0.9075,0.0288,0.0851
8940,-0.9067,-0.0461,0.1115
8960,-0.9703,0.0063,0.2009
8980,-0.9972,0.0063,0.2642
9000,-1.0519,0.019,-0.1824
9020,-1.2346,-0.0056,-0.104
9040,-1.2644,-0.0923,0.0923
9060,-0.8958,-0.1318,0.4384
9080,-1.1376,-0.2904,0.458
9100,-1.2501,0.271,0.0677
9120,-0.8889,-0.0444,-0.1726
9140,-0.7446,0.0427,0.0237
9160,-0.6965,0.1304,0.058
9180,-0.8445,0.2135,-0.0706
9200,-0.856,0.1782,-0.043
9220,-1.1451,0.2014,-0.2328
9240,-1.6133,0.0881,0.3666
9260,-1.1785,0.6212,0.3472
9280,-0.5055,-0.2759,0.2809
9300,-0.876,-0.1965,0.726
9320,-0.917,0.0962,-0.0531
9340,-0.7595,-0.1407,0.1211
9360,-0.9629,-0.0005,0.1042
9380,-1.0083,0.1194,0.0641
9400,-0.9161,0.1339,0.0549
9420,-1.1343,0.2137,-0.3867
9440,-1.2899,-0.2803,-0.1582
9460,-1.0858,-0.2067,0.7064
9480,-1.0774,-0.293,0.6554
9500,-1.5011,0.3502,0.0016
9520,-1.0471,0.1621,-0.526
9540,-0.4802,-0.1135,-0.0433
9560,-0.5317,-0.0006,0.0906
9580,-0.7092,0.4244,0.0215
9600,-1.6008,0.2002,0.2795
9620,-0.8997,0.1765,-0.1287
9640,-1.4736,-0.6871,0.5977
9660,-0.5781,-0.1759,-0.0571
9680,-0.6187,-0.3092,0.4873
9700,-1.1532,0.0958,0.4587
9720,-0.7712,-0.0914,0.0354
9740,-0.9485,-0.0281,0.1355
9760,-0.9458,0.0245,0.2173
9780,-0.8867,0.0975,0.0284
9800,-1.1349,0.3108,-0.3575
9820,-1.301,-0.0651,-0.2115
9840,-1.1234,-0.2526,0.8011
9860,-1.1486,-0.1663,0.8068
9880,-1.4081,0.2567,0.1978
9900,-0.7469,0.1262,-0.2809
9920,-0.5909,0.0599,-0.0903
9940,-0.4515,0.0374,0.0084
9960,-0.9532,0.7577,-0.0601
9980,-1.8796,0.2222,0.5482
10000,-1.134,-0.4423,0.6193
10020,-0.6056,-0.1277,0.1428
10040,-0.9955,-0.3213,-0.0345
10060,-1.1877,0.3033,0.1796
10080,-0.8428,-0.0457,0.4656
10100,-0.7423,-0.129,0.115
10120,-0.8669,-0.0748,0.1595
10140,-1.03,0.1797,0.1862
10160,-0.9896,0.23,-0.0851
10180,-1.1938,0.1772,-0.3019
10200,-1.1814,-0.1968,0.1455
10220,-1.514,0.04,0.9587
10240,-1.1898,-0.2007,0.4336
10260,-1.2449,0.1791,0.1061
10280,-0.6528,0.0792,-0.116
10300,-0.443,-0.0896,0.1738
10320,-0.476,0.0343,-0.0157
10340,-0.8306,0.6622,-0.165
10360,-1.7139,0.1591,0.0317
10380,-0.8744,0.0544,0.2372
10400,-1.0665,-0.0002,0.2854
10420,-0.7633,-0.1793,-0.1844
10440,-0.8861,-0.2273,0.0973
10460,-0.8296,0.0314,0.2994
10480,-0.7257,-0.27,0.2551
10500,-0.8085,-0.072,0.4084
10520,-0.9968,0.1171,0.0975
10540,-1.0291,0.2019,-0.2708
10560,-1.1611,0.2227,-0.3038
10580,-0.9907,-0.118,0.2561
10600,-1.675,-0.2559,0.9915
10620,-1.1434,-0.4692,0.4403
10640,-1.2906,0.321,-0.0225
10660,-0.4845,0.0859,-0.1138
10680,-0.3865,-0.1936,-0.0044
10700,-0.4927,0.1583,-0.0052
10720,-0.9424,0.6649,0.0404
10740,-1.0339,0.1497,0.14
10760,-1.5278,-0.5139,0.5593
10780,-0.8435,-0.4637,0.0566
10800,-1.0209,-0.2714,0.0214
10820,-0.8737,0.1713,0.3876
10840,-0.6439,-0.3325,0.3688
10860,-0.7889,-0.0264,0.3057
10880,-0.9375,-0.031,0.1769
10900,-1.0441,0.224,0.1111
10920,-0.9413,0.208,-0.4263
10940,-1.2166,-0.1962,-0.1598
10960,-1.3112,-0.2587,0.432
10980,-1.3129,-0.1973,0.7814
11000,-1.359,0.2546,0.0491
11020,-1.1066,0.2097,-0.4525
11040,-0.5737,0.0645,-0.0636
11060,-0.3463,-0.0886,-0.0333
11080,-0.5277,0.4067,-0.0829
11100,-1.4337,0.1516,-0.1295
11120,-0.9406,0.3796,0.599
11140,-1.4697,-0.2678,0.5654
11160,-1.0424,-0.2097,0.1932
11180,-0.7218,-0.1688,-0.0425
11200,-0.8636,-0.0734,0.1172
11220,-0.7091,-0.2189,0.2084
11240,-0.6771,-0.1212,0.2229
11260,-0.9343,0.0315,0.3031
11280,-1.0667,0.1217,0.0934
11300,-0.9633,0.2217,-0.0471
11320,-1.0265,0.1713,-0.2422
11340,-1.1902,-0.0247,-0.0878
11360,-1.5679,-0.2566,0.771
11380,-1.2858,-0.4032,0.3871
11400,-1.1478,0.0914,0.3015
11420,-0.9811,0.0361,-0.103
11440,-0.7975,0.0225,0.1466
11460,-0.6313,0.3307,0.037
11480,-0.7489,0.5497,-0.5461
11500,-0.9928,-0.2272,-0.3428
11520,-0.9121,0.1511,0.4283
11540,-1.2589,-0.1498,0.7063
11560,-1.2753,0.1025,0.1053
11580,-1.1379,-0.0931,-0.4465
11600,-0.944,-0.2288,-0.0372
11620,-1.0922,0.0693,0.6122
11640,-0.9376,-0.0358,0.1559
11660,-1.0027,-0.0089,0.1821
11680,-0.9884,-0.0684,0.048
11700,-0.9301,-0.0775,0.1249
11720,-0.9746,-0.0244,0.1305
11740,-1.0447,-0.0221,0.2511
11760,-1.0437,-0.0721,0.2795
11780,-1.037,-0.0017,0.2356
11800,-0.8802,-0.0554,0.4026
11820,-0.8502,-0.0846,0.6525
11840,-0.8324,0.1699,0.4509
11860,-0.9403,0.1686,0.3062
11880,-0.8726,0.1191,0.255
11900,-0.8127,-0.0393,0.5591
11920,-0.7809,-0.1863,0.5723
11940,-0.7605,-0.1572,0.616
11960,-0.929,-0.0967,0.5995
11980,-1.0151,-0.1267,0.3254
12000,-1.0635,0.0382,0.35
12020,-1.0054,-0.0134,0.1552
12040,-0.9248,-0.05,0.1046
12060,-0.9514,-0.0131,0.0936
12080,-1.0486,0.0164,0.0815
12100,-1.0331,-0.083,0.088
12120,-0.9381,-0.1229,0.2253
12140,-0.874,-0.1525,0.358
12160,-1.0524,-0.1671,0.4272
12180,-0.9386,-0.2577,0.365
12200,-0.8905,-0.1997,0.4474
12220,-0.8618,-0.2479,0.3907
12240,-0.8937,-0.173,0.4113
12260,-0.8827,-0.1899,0.3518
12280,-0.8551,-0.2474,0.4543
12300,-0.9009,-0.2512,0.4264
12320,-0.9097,-0.328,0.5114
12340,-0.8612,-0.3126,0.5275
12360,-0.7181,-0.229,0.5137
12380,-0.7241,-0.1266,0.4341
12400,-0.7758,-0.2068,0.481
12420,-0.6815,-0.187,0.4292
12440,-0.879,-0.234,0.2861
12460,-1.1169,-0.1632,0.0518
12480,-1.2134,-0.0051,0.2073
12500,-1.1469,0.0323,0.0471
12520,-0.9387,-0.0259,0.2043
12540,-1.0063,0.0583,0.1298
12560,-0.9441,0.1046,-0.0634
12580,-1.1185,0.0493,0.0005
12600,-1.5477,0.026,0.0461
12620,-0.922,0.0123,0.4004
12640,-0.9902,-0.0333,0.3353
12660,-1.1404,-0.1255,0.3439
12680,-1.6364,0.0587,-0.0966
12700,-1.4655,0.2889,-0.1403
12720,-1.1578,0.2146,0.1115
12740,-0.8495,0.4119,-0.3431
12760,-0.1182,0.5775,-0.2731
12780,-0.0972,-0.3319,-0.1171
12800,-0.639,-0.7997,0.9358
12820,-0.4974,-0.079,0.1849
12840,-1.4381,-0.2037,0.1853
12860,-1.4098,0.4788,-0.2451
12880,-1.1035,0.1801,0.0756
12900,-1.8312,0.2251,0.7163
12920,-0.7372,0.4094,0.0461
12940,-0.1166,-0.3713,0.3309
12960,-1.0396,0.4973,0.0615
12980,-2.1893,-0.9559,1.0203
13000,-2.275,0.6382,0.079
13020,-1.2483,0.222,-0.1304
13040,0.0101,0.1082,-0.1565
13060,0.715,-0.2909,-0.0729
13080,-0.1912,0.4689,0.5668
13100,-2.2946,-0.5043,0.858
13120,-1.8881,-0.1924,-0.6023
13140,-1.3525,0.3978,-0.4507
13160,-1.5721,0.0308,0.0232
13180,-0.5382,0.0699,0.3834
13200,-0.0665,-0.3567,0.031
13220,-0.2516,0.3606,-0.3986
13240,-2.7762,-0.9469,0.8588
13260,-2.5294,0.9669,0.3373
13280,-1.2572,0.3322,-0.37
13300,0.111,0.2487,-0.1082
13320,1.1832,-0.429,-0.1489
13340,-1.6538,-0.1261,0.1281
13360,0.1857,-0.7928,1.0304
13380,-1.3179,-0.0314,-0.4395
13400,-1.5956,0.1913,-0.7312
13420,-1.4122,0.6519,-0.2034
13440,-0.8977,-0.1671,0.719
13460,0.5515,0.0974,-0.4072
13480,-1.0996,0.6941,0.1924
13500,-3.9995,-2.4612,2.8892
13520,-1.5779,0.9758,0.0173
13540,-0.8663,0.2377,-0.0121
13560,0.9547,-0.0474,0.004
13580,0.6506,-0.8293,-0.3618
13600,-2.7483,1.4504,1.8447
13620,-0.6329,-0.1545,0.7524
13640,-1.5692,0.2744,-1.0483
13660,-1.517,-0.3239,0.9042
13680,-1.1089,0.2606,1.9647
13700,-0.1296,-0.187,-0.5042
13720,-0.7174,0.5044,-0.4357
13740,-2.7015,-0.7726,0.1039
13760,-2.0131,0.582,0.7457
13780,-1.0182,0.2935,-0.3182
13800,0.0531,-0.4427,-0.1772
13820,1.4027,-0.4906,-0.1418
13840,-2.2634,-0.8494,-0.1882
13860,1.1171,-1.3861,1.3479
13880,-1.6619,0.4174,-0.7751
13900,-2.3512,0.4406,-0.587
13920,-1.1073,0.2028,0.9227
13940,-0.483,-0.2733,0.1122
13960,0.3966,-0.3544,-0.5294
13980,-2.0323,0.1039,-0.2206
14000,-1.1399,-0.1777,1.3929
14020,-1.9135,0.4663,0.1996
14040,-0.3773,-0.0493,-0.0793
14060,1.1638,-0.548,-0.1117
14080,-1.0931,1.7002,1.3756
14100,-3.9995,-1.2942,2.9412
14120,-1.194,0.0568,-0.7386
14140,-1.3638,0.1539,-1.4043
14160,-1.2739,-0.1241,0.1868
14180,-0.6813,0.3348,0.9252
14200,0.4243,0.2294,-0.6263
14220,-0.4392,0.3899,-0.475
14240,-3.9995,-2.0065,1.6559
14260,-1.9503,1.193,0.0588
14280,-0.8329,0.2789,-0.2517
14300,1.099,-0.3672,0.0269
14320,1.1564,-0.6555,0.0179
14340,-1.2406,-1.5657,0.4445
14360,0.0101,-0.7865,1.1573
14380,-1.4961,0.179,-0.9674
14400,-1.7781,-0.0273,0.465
14420,-1.163,0.7357,1.066
14440,-0.5172,-0.3815,-0.222
14460,0.1295,0.4424,-0.6912
14480,-1.5271,0.2294,0.8098
14500,-0.7743,-0.3773,1.3154
14520,-2.1234,0.7256,-0.292
14540,-0.3838,0.1865,-0.1183
14560,1.2225,-0.6243,-0.4976
14580,-0.2776,0.4025,0.5239
14600,-3.9995,-1.0217,2.7974
14620,-1.4702,-0.1539,-0.6467
14640,-0.9468,0.1677,-0.5853
14660,-1.2384,0.063,-0.2238
14680,-0.861,-0.072,0.9213
14700,0.5614,-0.0288,-0.4865
14720,-0.5221,-0.8186,-0.2997
14740,-3.4265,-1.2628,0.3717
14760,-1.2876,0.61,0.1515
14780,-1.0116,0.4312,-0.3425
14800,0.5736,0.3973,0.1949
14820,0.455,-0.2969,-0.2217
14840,-0.7982,-0.0842,-0.1069
14860,-1.3704,-0.7639,1.3307
14880,-1.3605,-0.129,-0.6338
14900,-1.8252,0.2469,0.2336
14920,-1.3533,0.5327,-0.0355
14940,-0.8885,-0.0818,0.7974
14960,0.3795,0.0038,-0.5057
14980,-0.4619,0.574,-0.3237
15000,-3.8551,-1.7184,1.8088
15020,-1.9009,0.7555,0.7927
15040,-1.3871,0.3517,-0.3899
15060,0.7904,-0.1456,0.2382
15080,1.0604,-0.6744,-0.4381
15100,-1.3403,0.1586,-0.2571
15120,0.5647,-1.1885,0.7269
15140,-1.4546,-0.0187,-1.0552
15160,-1.9701,-0.045,-0.2081
15180,-1.2186,0.6085,0.2773
15200,-0.3408,0.0851,0.6677
15220,0.6073,-0.021,-0.537
15240,-0.2791,-0.3365,-0.1735
15260,-3.9995,-1.692,1.1481
15280,-1.0425,0.3395,0.8154
15300,-1.4572,0.1803,-0.7417
15320,0.6742,-0.1328,0.2205
15340,0.9354,-0.9938,-0.1184
15360,-1.4026,0.5745,0.6375
15380,0.2682,-0.5253,0.9099
15400,-2.1068,0.1069,-0.8961
15420,-1.9672,0.4325,0.6685
15440,-1.3094,0.3038,0.8236
15460,-0.8478,0.0485,0.277
15480,0.5432,-0.0012,-0.6177
15500,-1.3798,-0.397,0.3003
15520,-3.1887,-2.0444,2.5471
15540,-2.2224,0.7844,0.0189
15560,-1.0254,0.0853,-0.1066
15580,1.251,-0.2374,0.2794
15600,1.2217,-0.5443,0.0117
15620,-2.3562,0.6968,1.4415
15640,-0.1578,-0.0135,0.9143
15660,-1.3669,0.2334,-0.7273
15680,-1.7373,-0.0382,0.4203
15700,-0.9747,0.2075,0.9093
15720,-0.6127,-0.5382,0.1493
15740,0.4656,0.1512,-0.7754
15760,-1.4355,-0.2948,0.968
15780,-1.1815,0.1399,2.0515
15800,-2.2513,0.7169,-0.4613
15820,-0.7444,0.0809,0.0696
15840,1.1407,-0.4091,-0.1462
15860,0.5049,-0.1516,0.2631
15880,-2.6235,0.8529,2.2209
15900,-0.4006,-0.3358,0.8434
15920,-1.5188,0.3451,-0.8096
15940,-1.7076,0.0889,0.3546
15960,-1.4753,0.4414,1.0311
15980,-0.4767,-0.3622,-0.2302
16000,0.4287,0.2292,-1.1483
16020,-1.7933,-0.1305,0.176
16040,-1.2505,-0.4587,1.9534
16060,-2.244,0.7814,-0.1514
16080,-0.3879,0.2404,0.1317
16100,1.0077,-0.6018,-0.2616
16120,0.5955,-0.465,-0.222
16140,-3.9995,-0.9347,2.511
16160,-1.6012,0.2345,0.0201
16180,-0.9352,0.5107,-0.5641
16200,-0.939,-0.9906,0.9883
16220,-1.1052,0.2427,0.9211
16240,-0.1854,0.1998,-0.3119
16260,0.0137,0.3086,-0.8644
16280,-1.726,0.0681,0.2067
16300,-1.4423,-0.0312,1.5999
16320,-2.0951,0.4142,-0.4312
16340,-0.2428,0.1008,0.3508
16360,1.11,-0.8036,-0.1555
16380,0.167,-0.3302,0.2666
16400,-3.9995,-1.3073,2.6415
16420,-1.4949,-0.4102,-0.0701
16440,-1.1503,0.2628,-0.8744
16460,-1.0754,-0.547,-0.0405
16480,-1.0735,-0.1212,0.5889
16500,-0.1964,0.4189,-0.5585
16520,-0.4253,-0.2609,-0.51
16540,-2.5043,-0.1395,-0.2245
16560,-1.6409,0.1294,1.0344
16580,-1.7379,0.6699,-0.2469
16600,0.062,-0.8645,0.3564
16620,1.0588,-0.7671,-0.3367
16640,-1.4587,2.0699,1.7449
16660,-3.9976,-1.5734,2.668
16680,-1.7184,-0.0682,-0.7618
16700,-1.6554,0.3317,-0.3713
16720,-1.5883,0.7751,0.7114
16740,-0.9719,-0.1404,0.2155
16760,0.3948,0.4288,-1.0071
16780,-1.0813,0.1038,0.5568
16800,-2.6272,-3.3101,2.4275
16820,-2.1418,0.7225,0.5375
16840,-0.9688,0.1779,0.0718
16860,1.0841,-0.8676,-0.2227
16880,0.4346,-0.7566,0.2018
16900,-1.1652,-1.2471,1.1075
16920,-0.3392,-0.3739,0.6689
16940,-1.2439,0.191,-0.7507
16960,-1.6003,-0.0129,0.8564
16980,-1.2871,-0.0522,0.969
17000,-0.7922,-0.3323,0.0804
17020,0.3435,0.7343,-1.0216
17040,-1.5308,-0.33,0.0259
17060,-2.3232,-2.1782,1.9073
17080,-1.885,0.4747,0.2987
17100,-1.1885,0.067,0.207
17120,1.168,-0.9321,-0.0524
17140,0.4197,-0.7211,0.3632
17160,-2.6364,0.2344,2.0903
17180,-0.9913,-0.0059,0.4155
17200,-1.5701,0.4456,-0.6151
17220,-2.2467,-0.0698,0.9232
17240,-0.5773,-0.4742,0.4316
17260,-0.5919,-0.0422,-0.2157
17280,-0.2039,-0.2509,-0.5812
17300,-1.776,-0.0519,-0.1525
17320,-0.9742,-0.7026,0.9283
17340,-1.7452,0.6035,-0.1045
17360,-0.1287,-0.4995,0.3898
17380,1.454,-1.1025,-0.392
17400,-2.0295,0.8119,0.4255
17420,0.2778,-0.7277,0.9
17440,-1.4636,0.3511,-0.2839
17460,-2.0485,0.8983,0.6058
17480,-1.559,0.8156,-0.2875
17500,-0.8085,-0.0735,0.2408
17520,-0.0608,0.3682,-0.4551
17540,-0.9852,0.6593,-0.1105
17560,-2.9916,-2.7858,2.2726
17580,-1.9203,0.8026,0.834
17600,-1.5223,0.4948,-0.1031
17620,0.6328,-0.5133,0.0688
17640,1.2461,-0.4355,-0.297
17660,-1.3813,-0.0985,-0.4912
17680,0.9229,-0.8313,1.01
17700,-0.6715,0.4712,-0.8782
17720,-1.3433,-0.2369,0.7601
17740,-1.3571,0.556,-0.4039
17760,-0.8722,-0.7247,0.6279
17780,0.1537,0.3917,-0.6384
17800,-0.6155,0.6576,-0.4687
17820,-3.3501,-1.804,0.8596
17840,-1.7371,0.7471,0.7146
17860,-1.3783,0.4408,0.0304
17880,0.5471,-0.5928,-0.2548
17900,0.8552,-0.1926,-0.3127
17920,-1.2156,-0.1284,-0.7931
17940,-1.0472,-2.4254,1.8639
17960,-0.8658,0.1112,-0.42
17980,-1.8066,0.1276,-0.2323
18000,-1.5049,0.531,-0.303
18020,-1.0359,-0.0283,0.8525
18040,0.1432,0.353,-0.5171
18060,-0.5956,0.3733,-0.2168
18080,-1.8149,-0.5343,-0.0863
18100,-2.2849,0.4097,0.9169
18120,-1.5553,0.4166,0.0143
18140,0.1232,-0.2065,0.0765
18160,1.0077,-0.4824,-0.3286
18180,-0.9454,0.3297,1.0094
18200,-0.465,-1.4462,0.8627
18220,-0.8431,0.1144,-0.5009
18240,-1.5411,0.0299,0.1393
18260,-1.1088,-0.2941,0.2502
18280,-0.7286,-0.2645,0.9679
18300,0.2871,0.746,-0.829
18320,-0.4547,0.0927,-0.3099
18340,-1.8582,-0.5228,-0.3923
18360,-1.8738,-0.0746,1.2395
18380,-1.6606,0.2014,0.2598
18400,-0.4332,-0.2806,0.2153
18420,1.0577,-0.4813,-0.5789
18440,-0.2249,0.6239,0.9563
18460,-3.9995,-3.3478,1.9551
18480,-1.6968,0.4462,-0.2725
18500,-0.986,-0.0171,0.1533
18520,-0.7906,-0.0974,0.1271
18540,-0.8951,-0.4144,1.4802
18560,-0.3969,-0.0903,-0.2487
18580,-0.5117,0.399,-0.5037
18600,-1.8685,-0.7003,0.2301
18620,-1.5933,0.0787,1.1292
18640,-1.8888,0.3309,0.2168
18660,-0.1055,-0.1777,0.1221
18680,0.7941,-0.4763,-0.6334
18700,-0.9127,0.2247,0.9032
18720,-1.6602,-0.9259,0.9634
18740,-1.4523,-0.7119,0.275
18760,-1.5669,0.385,0.2262
18780,-1.5406,-0.1147,-0.0411
18800,-0.4802,-0.4512,0.3507
18820,-0.287,0.4075,-0.5168
18840,-0.5636,0.0769,-0.4363
18860,-2.14,-0.3674,-0.2629
18880,-1.2765,-0.7861,1.2622
18900,-1.6595,0.2178,0.0771
18920,-0.2635,-0.3184,0.2062
18940,1.161,-0.4904,-0.5537
18960,-0.6831,0.7734,1.7468
18980,-2.7289,-1.3801,1.5576
19000,-1.2782,0.2622,-0.6907
19020,-1.1781,0.1095,0.3673
19040,-1.2058,-0.0059,0.6719
19060,-0.8126,-0.572,0.7659
19080,0.3544,0.2914,-0.3906
19100,-0.8557,0.6714,0.2046
19120,-2.4331,-1.3381,-0.0419
19140,-2.1637,0.413,1.0403
19160,-1.3274,0.4546,-0.1589
19180,0.1344,-0.6747,-0.0408
19200,1.0507,-0.4844,-0.6747
19220,-1.8094,0.49,0.363
19240,-1.9274,-1.2244,1.0103
19260,-0.9833,0.3228,-0.7075
19280,-1.3573,0.1578,-0.2001
19300,-1.4313,-0.2629,-0.2003
19320,-0.8099,-0.6042,0.9612
19340,0.6345,0.3657,-0.6868
19360,-0.4362,0.3392,0.2032
19380,-3.443,-2.0021,0.1576
19400,-1.8602,0.5459,1.225
19420,-1.1097,0.118,0.1656
19440,-0.0793,0.1531,-0.0238
19460,0.6019,-0.3335,-0.6952
19480,-0.7332,-0.3641,0.5266
19500,-3.0514,-2.444,0.7993
19520,-2.1277,0.179,-0.0537
19540,-1.1801,-0.109,0.0415
19560,-1.2305,0.2664,-0.5527
19580,-0.7966,-0.5605,0.8162
19600,-0.0422,0.2341,-0.329
19620,-0.1903,0.4766,-1.2015
19640,-1.842,-0.4524,-0.5201
19660,-1.6902,-0.9736,1.1163
19680,-1.6327,0.0963,0.2982
19700,-0.4475,-0.1218,0.0736
19720,1.1338,-0.5323,-0.2765
19740,-0.6816,0.4144,0.6677
19760,-3.9989,-3.6356,0.7363
19780,-1.6439,0.0249,0.1541
19800,-1.144,0.1873,0.0784
19820,-1.2241,0.1443,0.3832
19840,-0.8589,0.0436,0.5454
19860,-0.2378,-0.0649,-0.2659
19880,-0.1144,0.7189,-0.4188
19900,-1.5769,-0.6421,0.7748
19920,-1.375,-2.3416,2.1694
19940,-2.1208,0.2758,0.4031
19960,-0.5902,0.1156,0.2433
19980,0.6243,-0.6184,-0.0939
20000,0.4836,-0.6992,0.1194
20020,-2.136,-1.5314,1.0963
20040,-0.3878,-0.2113,-0.0692
20060,-1.3639,0.2488,-0.5089
20080,-1.614,-0.4459,0.8512
20100,-1.1362,0.015,0.7886
20120,-0.3777,-0.2509,-0.1445
20140,0.0394,0.7,-0.1864
20160,-1.9612,-0.1062,0.584
20180,-1.8683,-3.608,2.2556
20200,-1.8143,0.0687,0.53
20220,-0.9949,0.1212,0.2771
20240,0.4119,-0.4514,0.0004
20260,0.6758,-0.7451,-0.0962
20280,-1.0226,-0.4691,0.363
20300,-0.2604,-1.269,0.4202
20320,-1.1896,0.1516,-0.6737
20340,-1.8108,-0.3363,-0.0016
20360,-1.3115,0.0459,0.4733
20380,-0.7994,0.0297,0.3646
20400,0.3562,0.4935,-0.3782
20420,-0.7151,0.0778,-0.3811
20440,-1.9478,-0.6509,-0.2825
20460,-1.7581,0.2037,1.1163
20480,-1.5417,0.0604,0.2446
