timestamp,ax,ay,az
0,-0.5601,-0.6473,0.4191
20,0.6262,-0.1536,-0.2748
40,-1.3053,0.1935,-0.2051
60,-1.976,-0.7106,0.4785
80,-0.8075,-0.427,0.2542
100,-0.4374,-0.3895,0.4709
120,-0.1548,0.4917,-0.0648
140,-0.339,0.4259,-0.3773
160,-2.4443,-2.8384,0.3708
180,-1.2053,-0.8029,0.5234
200,-1.6829,-0.2209,0.6056
220,0.0469,-0.4127,-0.076
240,1.0255,0.1149,-0.9733
260,0.4586,-0.5205,0.3271
280,-3.1516,-2.8558,-1.0013
300,-0.9507,-0.0051,0.1478
320,-1.1367,-0.0454,0.1827
340,-1.6475,-0.9436,0.1663
360,-1.2732,-0.7399,0.7285
380,-0.2612,-0.4098,-0.106
400,-0.281,0.5925,-0.0269
420,-1.8026,-0.5302,0.2402
440,-0.6311,-2.0254,0.1583
460,-1.5094,-0.5845,0.6632
480,-0.9908,-0.2316,0.3834
500,0.7831,0.3168,-0.4474
520,0.2366,-0.0813,0.1385
540,-0.6129,-1.7238,0.0339
560,0.0598,-1.0804,-0.7177
580,-0.8312,0.248,-0.1943
600,-2.0413,-0.5992,0.3448
620,-1.0135,-0.7301,0.6591
640,-0.938,-0.2755,0.5198
660,-0.0574,0.2274,0.0723
680,-0.922,-0.0771,0.7877
700,-2.3546,-3.4825,0.0034
720,-1.5953,-0.6674,0.837
740,-1.3577,-0.3857,0.3086
760,0.0151,-0.2112,0.2155
780,0.5924,0.21,-0.7963
800,-0.1943,-0.3455,0.4396
820,-1.9305,-2.3896,0.4744
840,-1.4983,-0.3953,-0.2124
860,-0.8204,-0.3098,0.3816
880,-0.979,-0.9045,-0.072
900,-0.8871,-0.6738,0.7559
920,-0.066,-0.104,-0.0581
940,-0.4767,0.8116,0.0024
960,-2.4674,-0.8181,0.0919
980,-1.4879,-1.3787,0.7214
1000,-1.0743,-0.4644,0.2899
1020,-0.6721,-0.1572,0.078
1040,0.4905,0.3923,0.1063
1060,-0.2239,0.5819,0.047
1080,-2.6896,-3.8071,0.7382
1100,-0.1373,-0.5107,-2.0099
1120,-1.0264,-1.0706,0.0709
1140,-0.9954,-0.9146,0.4696
1160,-0.5267,-0.5422,0.0481
1180,-0.9545,-0.3362,-0.0098
1200,-0.7456,0.0378,0.3429
1220,-0.8101,-0.2894,0.1884
1240,-0.736,0.2238,-0.1984
1260,-1.2645,-1.0187,0.3623
1280,-1.0812,-1.1449,0.0428
1300,-1.15,-0.6805,0.5123
1320,-1.1869,-0.199,0.1724
1340,-0.332,-0.3624,-0.1694
1360,0.0571,-0.1169,0.073
1380,-0.4559,0.2915,0.7354
1400,-1.6119,-0.6638,0.3159
1420,-0.9961,-0.8956,0.8807
1440,-0.9431,-1.0244,0.4983
1460,-0.3956,-0.4808,-0.2031
1480,-0.5302,-0.6869,-0.3009
1500,-1.1807,-0.4109,0.0869
1520,-0.6829,-0.6237,0.2045
1540,-0.84,-0.6906,0.0275
1560,-0.6772,-0.7711,0.2018
1580,-0.8295,-0.2797,0.2192
1600,-0.9141,-0.2267,0.088
1620,-1.092,-0.5895,0.088
1640,-0.6499,-0.734,-0.2089
1660,-0.7036,-1.1094,-0.0172
1680,-1.1561,-0.7943,0.0715
1700,-1.0577,-0.2607,0.2787
1720,-0.748,0.0627,0.0814
1740,-0.6704,-0.1006,-0.0615
1760,-0.6237,-0.137,0.0715
1780,-0.7214,0.0557,0.1339
1800,-1.0063,0.3237,0.0573
1820,-1.1274,0.6697,0.0719
1840,-1.561,0.1185,-0.041
1860,-1.7052,-0.0021,0.3105
1880,-0.77,-0.3425,-0.2355
1900,-0.9429,-0.4377,-0.2445
1920,-0.8326,0.0753,0.0875
1940,-0.8837,-0.5017,-0.3407
1960,-1.068,0.0941,0.0188
1980,-1.0829,0.0173,0.0955
2000,-0.9191,0.0184,0.2324
2020,-0.9242,0.062,0.0739
2040,-0.9869,0.1844,0.0106
2060,-1.2786,0.1804,0.048
2080,-1.2577,-0.6986,-0.3777
2100,-0.9603,-0.2266,0.3082
2120,-1.089,-0.1456,0.2209
2140,-1.0598,0.3129,0.1866
2160,-0.9601,0.3271,0.1602
2180,-0.6697,0.2611,0.3569
2200,-0.6057,-0.2301,-0.0629
2220,-0.6278,0.1814,0.2571
2240,-1.3033,0.3628,0.3241
2260,-1.1064,0.4421,0.1052
2280,-1.7499,-0.356,0.1586
2300,-0.9445,0.1835,0.3143
2320,-0.6423,-0.0747,-0.0726
2340,-1.0674,-0.3315,-0.0294
2360,-0.9293,-0.0656,0.0718
2380,-0.9586,-0.1915,0.1752
2400,-0.9377,-0.0532,-0.0972
2420,-0.8988,-0.0175,0.1079
2440,-0.9395,-0.1078,0.1329
2460,-0.9254,0.0229,0.0962
2480,-0.976,-0.0007,0.0746
2500,-1.0736,-0.1436,-0.0581
2520,-1.1892,-0.0922,0.0371
2540,-1.0073,-0.0847,0.0822
2560,-1.1967,-0.4041,0.5211
2580,-1.2986,0.097,0.0962
2600,-1.0443,0.2654,0.293
2620,-0.7505,0.0647,0.0559
2640,-0.6296,-0.0214,0.1254
2660,-0.7057,-0.0432,0.2153
2680,-0.871,0.0978,0.4736
2700,-1.4343,0.1826,0.3905
2720,-0.8318,0.0992,0.125
2740,-1.5028,-0.4402,0.4147
2760,-0.8682,0.1985,0.0885
2780,-0.8556,-0.1799,-0.0878
2800,-1.2441,-0.0465,-0.1079
2820,-0.8815,-0.1967,-0.0457
2840,-0.9025,-0.0161,0.0341
2860,-1.0427,-0.1025,0.0873
2880,-1.0806,0.0295,0.2097
2900,-0.9797,-0.0193,0.059
2920,-0.9592,-0.1124,0.0443
2940,-0.9857,-0.1949,0.0593
2960,-0.9275,-0.1174,0.1144
2980,-0.9597,-0.0483,0.014
3000,-1.0173,-0.256,0.05
3020,-0.9878,-0.1416,0.0404
3040,-0.9974,-0.1145,0.0444
3060,-1.0012,-0.0768,0.0674
3080,-0.9633,-0.1584,0.0531
3100,-0.9989,-0.1599,0.078
3120,-0.9948,-0.1462,0.0339
3140,-0.9799,-0.1614,0.051
3160,-0.9939,-0.1655,0.0725
3180,-0.9884,-0.2076,0.0293
3200,-1.0033,-0.1656,0.0385
3220,-0.9714,-0.1481,0.0499
3240,-0.9867,-0.132,0.0845
3260,-1.0128,-0.1195,0.1115
3280,-0.9921,-0.1157,0.1074
3300,-0.976,-0.1281,0.0844
3320,-0.9987,-0.1622,0.0709
3340,-0.988,-0.1781,0.0543
3360,-0.9845,-0.1725,0.0635
3380,-0.9862,-0.1527,0.0717
3400,-0.9705,-0.142,0.0713
3420,-0.9882,-0.158,0.0811
3440,-0.9869,-0.1433,0.082
3460,-0.9872,-0.1473,0.076
3480,-0.9849,-0.1666,0.0692
3500,-0.9899,-0.1553,0.0782
3520,-0.9843,-0.1613,0.0769
3540,-0.9867,-0.1627,0.076
3560,-0.9756,-0.1543,0.0762
3580,-0.986,-0.1545,0.0798
3600,-0.9872,-0.1531,0.0802
3620,-0.9763,-0.1482,0.0851
3640,-0.9879,-0.1482,0.0883
3660,-0.9844,-0.1588,0.0806
3680,-0.9858,-0.1588,0.0819
3700,-0.981,-0.1652,0.0725
3720,-0.9753,-0.1626,0.0735
3740,-0.9893,-0.1633,0.0791
3760,-0.9818,-0.151,0.0826
3780,-0.9856,-0.1647,0.0859
3800,-0.9812,-0.1621,0.0792
3820,-0.9917,-0.1573,0.0791
3840,-0.983,-0.1318,0.0854
3860,-0.9879,-0.1445,0.0791
3880,-0.9816,-0.1353,0.0817
3900,-0.9891,-0.1357,0.072
3920,-0.9729,-0.1621,0.0558
3940,-0.9956,-0.1543,0.0638
3960,-0.996,-0.13,0.0642
3980,-0.9984,-0.1385,0.0667
4000,-0.9913,-0.1606,0.0598
4020,-0.9757,-0.1527,0.0585
4040,-0.9946,-0.1775,0.0496
4060,-0.9985,-0.1893,0.0392
4080,-1.0006,-0.1821,0.0392
4100,-0.9657,-0.1696,0.0541
4120,-0.9772,-0.1458,0.0804
4140,-0.9799,-0.113,0.0937
4160,-0.9745,-0.1053,0.0983
4180,-0.9752,-0.1287,0.0791
4200,-1.0219,-0.1786,0.0706
4220,-0.9966,-0.1541,0.0732
4240,-0.9955,-0.1538,0.1085
4260,-0.9716,-0.1339,0.0986
4280,-0.9761,-0.1522,0.0876
4300,-0.9843,-0.158,0.0741
4320,-0.9976,-0.1692,0.0796
4340,-0.9836,-0.1117,0.109
4360,-0.9775,-0.0996,0.115
4380,-0.9877,-0.1525,0.1107
4400,-0.9822,-0.1515,0.0879
4420,-0.984,-0.1605,0.084
4440,-0.9949,-0.1713,0.0806
4460,-0.9808,-0.1741,0.0833
4480,-0.9852,-0.1522,0.0879
4500,-0.9766,-0.132,0.101
4520,-0.9841,-0.1272,0.0918
4540,-0.981,-0.1465,0.0789
4560,-0.9879,-0.1664,0.0818
4580,-0.9973,-0.1797,0.0668
4600,-0.9781,-0.1682,0.0573
4620,-0.9636,-0.1451,0.0637
4640,-0.9695,-0.118,0.0852
4660,-0.9934,-0.1615,0.0891
4680,-0.9995,-0.1801,0.0944
4700,-0.989,-0.167,0.0802
4720,-0.9851,-0.1887,0.0769
4740,-0.9757,-0.1827,0.0609
4760,-0.9843,-0.1794,0.069
4780,-0.9789,-0.16,0.076
4800,-0.981,-0.1667,0.0792
4820,-0.9996,-0.1881,0.0712
4840,-0.9762,-0.1515,0.0825
4860,-1.0012,-0.1716,0.0786
4880,-0.9919,-0.1786,0.0729
4900,-0.9778,-0.1316,0.089
4920,-0.9915,-0.1571,0.0985
4940,-0.9736,-0.1586,0.0963
4960,-0.9738,-0.1373,0.0936
4980,-0.9908,-0.147,0.0975
5000,-0.984,-0.1572,0.0873
5020,-0.9886,-0.1548,0.0952
5040,-0.9802,-0.1313,0.0916
5060,-0.9878,-0.1416,0.0936
5080,-0.9731,-0.1641,0.0767
5100,-0.981,-0.1454,0.0854
5120,-0.9889,-0.16,0.0839
5140,-0.9823,-0.1644,0.0809
5160,-0.9828,-0.1648,0.0851
5180,-0.9762,-0.161,0.0881
5200,-0.9857,-0.179,0.0889
5220,-0.9847,-0.1826,0.0897
5240,-0.9817,-0.1553,0.0985
5260,-0.991,-0.1537,0.0989
5280,-0.9818,-0.1676,0.0956
5300,-0.9823,-0.1685,0.093
5320,-0.98,-0.168,0.0992
5340,-0.9795,-0.1456,0.1062
5360,-0.9781,-0.1483,0.1093
5380,-0.9886,-0.1431,0.1169
5400,-0.9839,-0.1442,0.1063
5420,-0.9792,-0.1582,0.1072
5440,-0.9855,-0.1669,0.1051
5460,-0.9857,-0.1643,0.1038
5480,-0.9839,-0.1573,0.105
5500,-0.9801,-0.1362,0.1113
5520,-0.9761,-0.151,0.1132
5540,-0.9756,-0.1573,0.1075
5560,-0.9761,-0.146,0.1038
5580,-0.9878,-0.1544,0.105
5600,-0.9883,-0.1665,0.1035
5620,-0.9763,-0.1953,0.0905
5640,-0.9712,-0.1688,0.1044
5660,-0.9756,-0.1631,0.1105
5680,-0.9877,-0.1676,0.1053
5700,-0.9702,-0.142,0.1064
5720,-0.9719,-0.1405,0.1122
5740,-0.9872,-0.1527,0.1058
5760,-0.9758,-0.1534,0.1066
5780,-0.9744,-0.1455,0.1145
5800,-0.9846,-0.1543,0.1177
5820,-0.9836,-0.158,0.1143
5840,-0.9833,-0.1605,0.1151
5860,-0.9731,-0.168,0.1107
5880,-0.9818,-0.1771,0.1172
5900,-0.9805,-0.1798,0.1084
5920,-0.9702,-0.165,0.1025
5940,-0.9871,-0.1688,0.1138
5960,-0.9816,-0.1686,0.125
5980,-0.9894,-0.1534,0.1306
6000,-0.9801,-0.1611,0.1168
6020,-0.9781,-0.1791,0.1104
6040,-0.98,-0.1674,0.1171
6060,-0.9773,-0.1619,0.119
6080,-0.978,-0.1663,0.1143
6100,-0.9756,-0.1691,0.1099
6120,-0.9932,-0.1643,0.1121
6140,-0.9724,-0.1681,0.1115
6160,-0.9818,-0.179,0.1041
6180,-0.9714,-0.1473,0.1078
6200,-0.9666,-0.1356,0.1169
6220,-0.9711,-0.1588,0.1229
6240,-0.9718,-0.16,0.1306
6260,-0.9755,-0.1539,0.1245
6280,-0.9796,-0.1675,0.1179
6300,-0.9839,-0.1492,0.1165
6320,-0.9764,-0.1381,0.1096
6340,-0.9843,-0.1417,0.1067
6360,-0.9871,-0.1449,0.1099
6380,-0.9789,-0.1489,0.1244
6400,-0.9784,-0.1792,0.1204
6420,-0.9702,-0.177,0.121
6440,-0.9727,-0.1656,0.1221
6460,-0.9762,-0.1554,0.1296
6480,-0.9814,-0.1487,0.1276
6500,-0.985,-0.1349,0.123
6520,-0.9779,-0.145,0.1086
6540,-0.975,-0.1556,0.1025
6560,-0.9811,-0.1624,0.0989
6580,-0.9768,-0.1639,0.0939
6600,-0.9838,-0.1542,0.0988
6620,-0.9877,-0.1732,0.0927
6640,-0.9751,-0.1727,0.0823
6660,-0.9808,-0.1541,0.0951
6680,-0.9869,-0.1427,0.0928
6700,-0.9885,-0.1462,0.0784
6720,-0.9854,-0.1487,0.0717
6740,-0.988,-0.1573,0.0591
6760,-0.9854,-0.1707,0.0624
6780,-0.9877,-0.1721,0.0542
6800,-0.9802,-0.1527,0.0563
6820,-0.9904,-0.1631,0.058
6840,-0.9889,-0.1722,0.0533
6860,-0.9832,-0.1534,0.0565
6880,-0.9921,-0.1459,0.0609
6900,-0.9844,-0.1475,0.0552
6920,-0.9927,-0.1431,0.057
6940,-0.9774,-0.1423,0.0564
6960,-0.9979,-0.1638,0.0522
6980,-0.99,-0.161,0.0476
7000,-0.9847,-0.1473,0.0573
7020,-0.9921,-0.1423,0.0634
7040,-0.989,-0.1462,0.0695
7060,-0.9878,-0.1417,0.075
7080,-0.985,-0.1302,0.0809
7100,-0.9841,-0.1273,0.0796
7120,-0.9817,-0.1318,0.073
7140,-0.988,-0.1387,0.0682
7160,-0.9912,-0.1338,0.0671
7180,-0.9843,-0.1377,0.0602
7200,-0.9943,-0.1316,0.0643
7220,-0.9924,-0.1329,0.0596
7240,-0.986,-0.1349,0.0581
7260,-0.9879,-0.132,0.0667
7280,-0.9921,-0.1224,0.0773
7300,-0.9904,-0.1372,0.0715
7320,-0.9868,-0.1577,0.0597
7340,-1.0001,-0.1743,0.0659
7360,-0.9868,-0.1818,0.064
7380,-0.9722,-0.1564,0.0604
7400,-0.9814,-0.1343,0.084
7420,-0.9799,-0.0919,0.1002
7440,-0.9917,-0.1132,0.0997
7460,-0.9823,-0.1205,0.0914
7480,-0.9867,-0.1364,0.0985
7500,-0.9888,-0.1505,0.0944
7520,-0.9819,-0.1509,0.0842
7540,-0.9794,-0.1478,0.0836
7560,-0.9878,-0.1415,0.088
7580,-0.9869,-0.1372,0.0865
7600,-0.9901,-0.1351,0.0823
7620,-0.9836,-0.1357,0.0872
7640,-0.9885,-0.1454,0.0833
7660,-0.9833,-0.1495,0.0811
7680,-0.9855,-0.1506,0.0773
7700,-0.9828,-0.1354,0.0835
7720,-0.9812,-0.1329,0.093
7740,-0.9966,-0.1564,0.0901
7760,-0.9833,-0.1934,0.0646
7780,-0.9888,-0.1823,0.0529
7800,-0.9828,-0.146,0.0667
7820,-0.9833,-0.12,0.0862
7840,-0.9845,-0.124,0.09
7860,-0.9871,-0.1376,0.0863
7880,-0.9894,-0.1337,0.089
7900,-0.9803,-0.1505,0.0809
7920,-0.9863,-0.1533,0.074
7940,-0.9897,-0.1613,0.0676
7960,-0.9835,-0.1672,0.072
7980,-0.9822,-0.1599,0.0742
8000,-0.988,-0.1594,0.0675
8020,-0.9866,-0.1334,0.0781
8040,-0.9891,-0.1444,0.0769
8060,-0.9856,-0.1583,0.069
8080,-0.9835,-0.1565,0.0669
8100,-0.98,-0.1543,0.0669
8120,-0.9827,-0.174,0.0619
8140,-0.9885,-0.1731,0.0679
8160,-0.9824,-0.1636,0.0701
8180,-0.9874,-0.1754,0.0648
8200,-0.9841,-0.1801,0.0601
8220,-0.9758,-0.1656,0.0597
8240,-0.9905,-0.167,0.0695
8260,-0.9839,-0.1669,0.0712
8280,-0.9847,-0.1605,0.0684
8300,-0.981,-0.1554,0.0706
8320,-0.9832,-0.1736,0.0719
8340,-0.99,-0.1675,0.0725
8360,-0.9961,-0.1565,0.0714
8380,-0.991,-0.1621,0.0834
8400,-0.9897,-0.1495,0.0861
8420,-0.9885,-0.1908,0.0685
8440,-0.99,-0.1807,0.0771
8460,-0.99,-0.1688,0.0758
8480,-0.86,-0.3403,0.0498
8500,-0.8684,-0.229,0.1843
8520,-1.2053,0.0663,0.3186
8540,-1.0868,-0.053,0.213
8560,-0.9282,0.0911,0.2759
8580,-0.8665,0.0315,0.2603
8600,-0.7937,0.1172,0.2855
8620,-0.8517,0.0699,0.3538
8640,-0.8705,0.2363,0.3838
8660,-0.9285,0.125,0.4384
8680,-1.1947,-0.0348,0.5305
8700,-1.1062,-0.0233,0.3822
8720,-0.8015,-0.0847,0.2021
8740,-0.9354,-0.2545,0.0426
8760,-1.0238,-0.0839,0.0331
8780,-0.8591,-0.25,0.0156
8800,-0.9818,-0.1471,-0.0114
8820,-0.9828,-0.2242,-0.0007
8840,-0.9995,-0.0576,0.0372
8860,-0.9551,-0.1357,0.0582
8880,-0.963,-0.0844,0.1184
8900,-0.9729,-0.0946,0.0861
8920,-1.0192,-0.0743,0.0648
8940,-0.9023,0.0824,0.0055
8960,-1.0957,0.2565,-0.0056
8980,-1.3674,-0.0673,0.1914
9000,-1.1433,-0.7623,0.2822
9020,-1.0521,0.1245,0.0526
9040,-1.1718,-0.2743,0.2306
9060,-0.9789,0.1263,0.1354
9080,-0.615,-0.0568,0.1625
9100,-0.7345,-0.0094,0.1686
9120,-0.6707,0.1587,0.282
9140,-0.6744,0.2725,0.4912
9160,-1.4731,0.4498,0.2596
9180,-0.6516,0.0641,0.3214
9200,-1.6113,-0.35,-0.0564
9220,-1.0377,0.1664,0.4871
9240,-0.4788,-0.3729,-0.125
9260,-1.0352,-0.2631,-0.0482
9280,-0.9214,-0.1816,0.0409
9300,-0.8749,-0.4473,0.0449
9320,-0.9211,-0.2257,-0.0023
9340,-0.9044,-0.1799,0.198
9360,-0.8943,-0.2926,0.056
9380,-0.9751,-0.2367,0.1869
9400,-1.0073,0.2534,0.2006
9420,-1.1339,0.1259,-0.0486
9440,-1.1704,-0.5558,-0.0231
9460,-0.9747,-0.2632,0.2407
9480,-1.3361,-0.3853,0.1313
9500,-1.2603,0.5177,0.502
9520,-0.6235,0.0112,-0.1405
9540,-0.6968,-0.1194,-0.0886
9560,-0.552,-0.058,0.1387
9580,-0.5914,0.047,0.5573
9600,-1.9973,0.3708,0.5471
9620,-1.6122,-0.3567,0.3171
9640,-0.8425,-0.567,0.2023
9660,-0.7238,0.0997,-0.2042
9680,-0.999,-0.231,-0.1406
9700,-1.0183,-0.2335,0.2595
9720,-0.8247,-0.3701,0.0963
9740,-1.0458,-0.0184,0.0935
9760,-0.908,-0.0465,0.1166
9780,-0.8416,-0.2391,0.0695
9800,-0.9791,0.0211,0.085
9820,-1.0835,-0.0808,0.1757
9840,-1.1451,-0.2012,-0.0823
9860,-1.1238,-0.3751,0.0559
9880,-0.946,-0.2574,-0.0609
9900,-1.5221,-0.2454,0.2891
9920,-1.1519,0.0498,0.3455
9940,-0.729,0.0258,-0.0236
9960,-0.7083,-0.1099,0.0729
9980,-0.5406,-0.1554,0.1561
10000,-0.7393,0.264,0.4781
10020,-1.53,0.5028,0.5414
10040,-1.5292,-0.3114,0.4395
10060,-0.6908,-0.4817,0.1589
10080,-0.8103,0.1702,-0.2515
10100,-1.0132,-0.245,-0.1741
10120,-1.0116,-0.1667,0.2158
10140,-0.7925,-0.2924,0.0498
10160,-0.9169,-0.0751,0.0005
10180,-0.941,-0.0426,0.1919
10200,-0.9229,-0.2262,0.1388
10220,-0.8961,-0.0162,0.1298
10240,-1.1028,0.1085,0.0771
10260,-1.3479,-0.2242,-0.1395
10280,-1.1162,-0.427,-0.097
10300,-1.2255,-0.3085,0.2134
10320,-1.2412,0.3568,0.29
10340,-0.7112,0.1687,-0.2493
10360,-0.7529,-0.2578,0.1272
10380,-0.8303,-0.3531,0.1042
10400,-0.7587,-0.007,0.5038
10420,-0.9791,0.76,0.0004
10440,-1.1843,-0.1293,0.5343
10460,-1.3022,-0.4583,-0.2128
10480,-1.1417,-0.037,0.4957
10500,-0.5498,-0.085,-0.1005
10520,-1.113,0.0541,-0.2186
10540,-0.8934,-0.3153,-0.0118
10560,-0.8506,-0.2277,0.038
10580,-0.8607,-0.1951,-0.0142
10600,-0.9104,-0.2289,0.0347
10620,-1.0125,-0.085,0.0958
10640,-0.9681,-0.1373,0.2092
10660,-0.9276,0.1029,-0.001
10680,-1.4128,0.1118,0.0082
10700,-1.1216,-0.2942,0.0103
10720,-1.155,-0.431,0.1635
10740,-1.2349,-0.0349,0.1865
10760,-0.9263,0.1129,0.1691
10780,-0.7692,-0.152,0.0388
10800,-0.7786,-0.1794,0.2036
10820,-0.7561,-0.0671,0.3778
10840,-0.8694,0.549,-0.0635
10860,-0.9313,0.4062,0.2845
10880,-1.0184,-0.5752,0.1482
10900,-1.3997,-0.4476,0.0728
10920,-1.1205,-0.1042,0.0892
10940,-1.045,0.1949,-0.1049
10960,-0.9315,-0.2384,-0.254
10980,-0.8641,-0.3488,0.051
11000,-0.7991,-0.2845,0.0321
11020,-0.9353,-0.1709,0.1107
11040,-0.8767,-0.1755,-0.1244
11060,-1.2231,-0.079,0.1779
11080,-1.0786,-0.1116,0.0255
11100,-0.8085,-0.4333,-0.1394
11120,-0.7418,-0.6338,-0.0518
11140,-1.016,-0.5953,0.0341
11160,-0.9995,-0.1873,-0.0376
11180,-0.9578,0.1317,0.0363
11200,-1.0129,-0.2025,-0.0309
11220,-0.9698,-0.465,0.158
11240,-0.9476,-0.1063,0.306
11260,-1.2188,0.1222,0.6329
11280,-1.0426,0.1582,0.6077
11300,-0.8112,0.1249,0.3427
11320,-0.6696,0.0812,0.3574
11340,-0.7422,0.0105,0.287
11360,-0.8578,-0.0814,0.1953
11380,-0.9376,-0.3475,0.3925
11400,-0.9205,-0.4496,0.1536
11420,-0.8578,-0.2523,0.458
11440,-1.6301,-0.4496,0.1664
11460,-1.0043,0.2078,-0.0739
11480,-0.9706,-0.2006,-0.1309
11500,-0.6742,-0.2334,-0.1851
11520,-0.991,-0.3486,0.0481
11540,-1.0001,-0.1627,-0.0745
11560,-1.0493,0.1898,-0.0507
11580,-1.0081,0.1797,0.1907
11600,-1.0027,0.1388,0.2056
11620,-1.0741,-0.3123,0.0063
11640,-1.0074,-0.3834,0.0027
11660,-0.9366,-0.1388,0.0352
11680,-1.0244,-0.1067,0.0348
11700,-0.952,-0.1791,0.0248
11720,-0.9781,-0.1208,0.0232
11740,-0.9867,-0.1838,0.1012
11760,-0.9657,-0.6648,-0.0448
11780,-0.9447,-0.4991,0.1517
11800,-1.0076,-0.179,0.2599
11820,-0.844,-0.1908,0.2759
11840,-0.8628,-0.2325,0.2599
11860,-0.9824,-0.1333,0.4175
11880,-0.881,-0.0009,0.3273
11900,-0.9536,-0.1942,0.3073
11920,-0.9064,-0.1761,0.4286
11940,-0.7935,-0.2195,0.1815
11960,-0.8016,-0.1699,0.2571
11980,-0.86,-0.3156,0.2769
12000,-1.0687,-0.2427,0.2839
12020,-1.1029,-0.4418,0.246
12040,-0.9246,-0.3497,0.2625
12060,-1.0208,-0.2919,0.2667
12080,-0.8909,-0.0151,0.1714
12100,-0.9391,-0.3311,0.0791
12120,-0.9054,-0.3282,0.1095
12140,-1.3292,-0.2021,0.2195
12160,-0.8657,-0.0627,0.083
12180,-0.913,-0.1608,0.113
12200,-1.0044,-0.1566,0.093
12220,-1.0143,0.0166,0.104
12240,-0.9957,-0.0662,0.0564
12260,-0.9844,-0.1544,0.0812
12280,-0.9863,-0.1489,0.0845
12300,-0.989,-0.1218,0.1263
12320,-0.9825,-0.1656,0.1183
12340,-0.962,-0.2332,0.1129
12360,-0.9523,-0.2786,0.1118
12380,-0.9382,-0.2478,0.1224
12400,-0.9198,-0.1918,0.0924
12420,-0.9562,-0.2733,0.1073
12440,-0.9486,-0.351,0.1387
12460,-0.96,-0.3511,0.1272
12480,-0.939,-0.3427,0.1239
12500,-0.9257,-0.3989,0.1245
12520,-0.9377,-0.4094,0.1118
12540,-0.917,-0.39,0.1108
12560,-0.9172,-0.34,0.1211
12580,-0.958,-0.3446,0.1285
12600,-0.9128,-0.3441,0.1056
12620,-0.9203,-0.4031,0.103
12640,-0.9486,-0.3848,0.0979
12660,-0.9393,-0.3866,0.1267
12680,-0.9319,-0.3265,0.0977
12700,-0.9346,-0.3445,0.0902
12720,-0.9491,-0.3274,0.0834
12740,-0.928,-0.3314,0.0815
12760,-0.9187,-0.3395,0.0848
12780,-0.9366,-0.3268,0.0825
12800,-0.9098,-0.3314,0.0726
12820,-0.9094,-0.3412,0.0549
12840,-0.9261,-0.3362,0.0551
12860,-0.9502,-0.3633,0.0321
12880,-0.9729,-0.3541,0.043
12900,-0.969,-0.3068,0.0569
12920,-0.951,-0.3118,0.0383
12940,-0.9412,-0.3077,0.0284
12960,-0.9376,-0.3055,0.0255
12980,-0.9456,-0.239,0.0309
13000,-0.9739,-0.2546,0.017
13020,-0.9733,-0.2507,0.0035
13040,-0.9886,-0.2557,0.0134
13060,-0.9956,-0.2565,-0.0012
13080,-0.9666,-0.2722,0.0038
13100,-0.9481,-0.2667,0.0007
13120,-0.9431,-0.2814,-0.002
13140,-0.9666,-0.3182,0.0209
13160,-0.9171,-0.2896,0.0249
13180,-0.9725,-0.2961,0.0597
13200,-0.9648,-0.246,0.0616
13220,-0.9385,-0.2963,0.0175
13240,-0.9227,-0.3345,-0.0464
13260,-1.0004,-0.4519,-0.0236
13280,-1.0934,-0.4065,0.0597
13300,-1.0175,-0.4205,-0.0007
13320,-0.7494,-0.3516,0.049
13340,-1.0222,-0.0503,0.2335
13360,-1.1238,-0.1113,0.1953
13380,-1.0415,-0.1178,0.1034
13400,-0.9077,-0.0262,0.2095
13420,-0.8638,-0.0333,0.0643
13440,-0.8043,0.0762,0.1458
13460,-0.6482,0.1071,0.1252
13480,-0.6564,0.0055,0.1022
13500,-0.684,0.1978,0.1775
13520,-0.8319,0.3014,0.2637
13540,-1.1571,0.4818,0.4863
13560,-1.142,0.7384,0.4243
13580,-1.254,0.1038,0.5753
13600,-0.2312,-0.0597,0.2302
13620,-0.5244,-0.3878,0.0206
13640,-1.6366,-0.1855,0.2826
13660,-1.1011,-0.1821,0.1537
13680,-0.845,-0.4584,0.0236
13700,-0.9407,-0.2129,-0.0165
13720,-0.8619,0.1005,-0.079
13740,-0.6537,-0.3683,-0.1198
13760,-0.7628,-0.4305,-0.0382
13780,-1.4509,0.2189,0.512
13800,-1.3652,0.4337,-0.1849
13820,-0.717,-0.3695,0.5499
13840,-1.4775,-1.1348,-0.1951
13860,-1.6837,-0.4951,0.2656
13880,-1.541,0.234,0.5502
13900,-0.9966,0.0715,0.1088
13920,-0.2314,0.6172,0.2512
13940,-0.0057,0.4281,-0.1038
13960,0.299,-0.7135,-0.2876
13980,-2.9275,-1.0414,0.1218
14000,-1.0446,0.1366,0.0829
14020,-0.9072,0.1001,0.0675
14040,-1.9348,0.5004,0.0441
14060,-0.9722,-0.8065,0.0179
14080,-1.0559,-0.4689,0.4247
14100,0.1702,0.1625,-0.4735
14120,-0.4581,-0.0392,0.2585
14140,-2.8737,-1.1343,-0.5375
14160,-2.2502,0.1436,1.0504
14180,-1.559,0.6,0.5063
14200,0.2365,-0.0208,-0.1576
14220,1.2676,-0.1097,-0.3535
14240,-3.5535,-0.3451,0.3784
14260,-0.5339,-0.9658,0.6752
14280,-0.9972,0.3834,-0.2106
14300,-2.3693,0.8895,0.1049
14320,-1.1572,-0.0414,1.6791
14340,-0.6887,-0.6854,-0.2786
14360,0.4142,0.5688,-0.1497
14380,-1.3652,-0.2063,1.1329
14400,-3.5872,-2.8468,-0.6428
14420,-2.0162,0.1627,0.5627
14440,-1.1534,0.3367,0.5409
14460,0.884,0.0376,-0.7565
14480,0.7815,-0.8907,0.5093
14500,-1.4865,-1.4031,0.7504
14520,-0.7689,-0.3901,0.501
14540,-1.3617,0.8273,-0.1742
14560,-2.0266,-0.2557,0.2162
14580,-1.2543,-1.3749,0.3993
14600,-0.3832,-0.1177,-0.132
14620,-0.0002,1.035,-0.0048
14640,-2.1548,-0.182,1.1276
14660,-0.6406,-0.9487,1.3168
14680,-2.0063,0.0824,0.8121
14700,-0.6667,-0.1654,0.021
14720,1.0533,0.1831,-0.8167
14740,0.1611,-0.1899,0.0542
14760,-3.9712,-3.9995,-1.5585
14780,-0.592,0.1632,-0.2697
14800,-1.3118,0.4977,-0.0398
14820,-1.3185,-0.0178,0.4351
14840,-1.3821,-0.9246,1.1775
14860,-0.0991,0.6775,-0.1328
14880,-0.3053,0.7035,-0.3182
14900,-1.7446,-1.1646,0.3904
14920,-0.7943,-1.2834,1.4613
14940,-1.8561,-0.0155,0.3574
14960,-0.4757,-0.275,0.2274
14980,1.1682,0.1328,-0.9015
15000,-0.2372,0.2393,0.2646
15020,-2.7184,-3.99,-1.5818
15040,-0.8113,0.1006,0.2952
15060,-1.2249,0.2874,0.2102
15080,-0.8805,-0.3083,0.2368
15100,-0.6606,-1.6572,0.6246
15120,-0.0055,0.6968,-0.2131
15140,-0.4788,0.4346,-0.2666
15160,-2.8514,-2.8241,-0.024
15180,-2.2115,-0.1779,1.2542
15200,-1.7764,0.2214,0.4331
15220,0.217,0.3208,-0.1218
15240,1.0685,0.4764,-0.521
15260,-1.1183,-0.1812,0.287
15280,0.9186,-1.3323,-0.775
15300,-1.4893,-0.2517,0.0577
15320,-2.3407,0.072,0.2419
15340,-1.4479,-0.1152,0.2513
15360,-0.4695,-1.3296,0.2816
15380,0.1052,0.7058,-0.1649
15400,-0.2804,0.3988,-0.0273
15420,-3.9973,-3.9995,-0.6382
15440,-1.9335,0.0082,0.9312
15460,-1.3601,0.1742,0.1315
15480,0.5189,-0.092,0.1008
15500,0.8091,0.1473,-0.7996
15520,-1.2373,-0.2262,0.4387
15540,0.5981,-1.2728,-0.5249
15560,-1.7689,0.043,0.3324
15580,-2.3582,-0.3939,-0.1306
15600,-1.3062,-0.8602,0.1096
15620,-0.3612,-0.9329,0.183
15640,0.2439,0.6971,-0.1953
15660,-0.4463,0.0465,-0.0485
15680,-3.0057,-2.698,0.2874
15700,-2.2496,0.3351,1.0931
15720,-1.326,0.1646,0.2928
15740,0.394,-0.1156,-0.0837
15760,0.8317,-0.0461,-0.484
15780,-1.5277,-0.1855,0.4022
15800,0.5098,-1.1781,-1.1927
15820,-1.3542,-0.2758,0.0692
15840,-1.5808,0.2909,-0.2369
15860,-1.2389,-1.261,-0.286
15880,-0.3625,-0.7258,0.2864
15900,0.1707,0.6603,-0.3052
15920,-1.1377,-0.2118,0.2618
15940,-3.244,-3.8628,-0.1578
15960,-2.0258,0.0908,0.3119
15980,-1.1747,-0.1017,0.3181
16000,0.701,0.3193,-0.2894
16020,0.7209,0.2512,-0.4282
16040,-1.447,-0.071,0.4633
16060,0.5677,-0.8632,-0.3568
16080,-1.7452,0.2686,-0.3639
16100,-1.9901,-1.024,-0.082
16120,-1.0389,-0.4817,0.8264
16140,-0.9264,-0.4716,0.3274
16160,-0.0673,1.1948,-0.0548
16180,-0.6357,0.4675,-0.4586
16200,-2.5967,-2.798,-0.0581
16220,-1.3591,-0.8518,1.0188
16240,-1.7904,-0.0789,0.4537
16260,-0.11,0.0422,-0.0006
16280,0.9314,0.5742,-0.7207
16300,-0.6895,-1.0613,1.1118
16320,-0.1182,-2.2765,0.1
16340,-0.5967,0.147,-0.2572
16360,-1.9584,-0.3665,0.2804
16380,-1.1516,0.5952,0.0588
16400,-0.9553,-0.4369,1.344
16420,-0.0375,0.342,-0.194
16440,-0.4524,0.5675,-0.6208
16460,-2.1963,-1.2687,0.7433
16480,-0.9049,-0.9325,0.855
16500,-2.0205,-0.4417,0.6674
16520,-0.5464,0.0582,0.3158
16540,0.8545,0.5546,-0.7743
16560,0.2845,0.2113,0.0613
16580,-3.1913,-2.8093,0.4254
16600,-1.2213,-0.4728,0.4158
16620,-0.7965,-0.0282,0.2811
16640,-1.5347,-0.515,-0.1367
16660,-0.6473,-0.8002,0.1755
16680,-0.3815,-0.0958,-0.171
16700,-0.4824,0.7913,-0.6266
16720,-2.0663,-1.1846,0.1781
16740,-1.0128,-1.1322,0.665
16760,-1.6805,0.1704,0.3781
16780,-0.1144,-0.0341,0.0955
16800,1.0973,0.5437,-0.75
16820,-1.0009,-0.0297,0.3732
16840,-1.0604,-2.2375,-0.3842
16860,-1.1393,-0.2972,-0.0538
16880,-2.0765,0.2761,0.4188
16900,-1.1414,-0.2843,-0.1541
16920,-0.0927,-0.9709,0.0577
16940,0.0649,0.2211,-0.2091
16960,-0.6868,0.7012,-0.8407
16980,-2.4127,-1.3638,0.4238
17000,-1.1179,-0.8616,1.2167
17020,-1.6547,0.244,0.4965
17040,0.1292,-0.2761,-0.1057
17060,1.0193,0.1635,-1.1382
17080,-0.8914,-0.098,0.9788
17100,-3.9995,-3.9995,-2.5125
17120,-0.7262,1.121,0.2274
17140,-1.7504,-0.1334,0.301
17160,-1.0238,0.1034,0.33
17180,-0.5917,-1.1765,0.7852
17200,0.0155,0.1465,-0.0985
17220,-0.3392,1.2124,-0.5245
17240,-2.0831,-1.1775,0.4529
17260,-0.8394,-0.5446,0.9973
17280,-1.762,-0.119,0.5261
17300,0.2155,-0.3109,0.1111
17320,1.1407,0.0051,-0.7338
17340,-0.0168,-0.0839,0.6433
17360,-1.1511,-1.559,0.0822
17380,-1.0238,-0.6119,-0.3131
17400,-2.3556,0.215,0.0717
17420,-0.9219,-0.3884,-0.0608
17440,-0.6907,-1.8191,0.6373
17460,-0.014,0.4845,-0.2355
17480,-0.03,1.0579,-0.4314
17500,-2.178,-1.042,0.3458
17520,-1.5399,-0.8235,1.0813
17540,-1.7932,0.1692,0.5184
17560,0.2816,-0.1254,-0.1732
17580,1.1277,0.2698,-1.0984
17600,-1.0198,-0.1603,0.7493
17620,-3.9995,-3.9995,-0.3218
17640,-1.4949,0.7966,0.0042
17660,-0.9095,-0.5371,0.2803
17680,-0.9181,-0.15,-0.4757
17700,-0.4114,-0.9514,0.396
17720,0.1917,0.3958,-0.317
17740,-0.5469,0.0981,-0.4761
17760,-3.1663,-2.1436,0.4185
17780,-2.0974,0.0269,1.2512
17800,-1.5502,0.4181,0.4585
17820,0.5598,0.1143,0.0569
17840,0.6187,-0.2051,-0.8701
17860,-0.84,-0.3406,-0.1375
17880,-1.2559,-2.7321,1.6182
17900,-1.3916,0.3041,-0.0573
17920,-1.9985,0.1693,0.3014
17940,-1.1821,-0.0322,-0.1476
17960,-0.6757,-1.2527,0.5084
17980,0.1788,0.6415,-0.1764
18000,-0.3623,0.495,-0.8687
18020,-3.5826,-0.9392,0.3782
18040,-2.0869,-0.1191,1.1445
18060,-1.3333,-0.0142,0.281
18080,0.6818,-0.1224,0.1168
18100,0.683,0.0446,-0.7239
18120,-1.0764,-0.302,0.3076
18140,0.998,-1.149,-0.2032
18160,-0.9744,0.2714,-0.3179
18180,-3.276,0.8037,-0.119
18200,-0.9115,-0.0929,0.9929
18220,-0.554,-0.8398,0.876
18240,0.4686,1.0116,-0.3629
18260,-1.1575,0.2814,0.0762
18280,-3.6157,-3.9995,-1.0392
18300,-1.8881,-0.0101,0.8101
18320,-0.9332,-0.1377,0.3907
18340,1.0692,0.4574,-0.9766
18360,0.302,-0.3257,0.1603
18380,-1.1532,-1.2153,0.6073
18400,-0.8699,-1.1198,0.5242
18420,-0.942,0.1576,0.257
18440,-2.5066,-0.5391,0.9265
18460,-1.1271,-0.4705,1.1302
18480,-0.2549,-0.1108,-0.1687
18500,0.0386,0.7007,-0.3037
18520,-1.6884,-0.9349,0.5248
18540,-0.9354,-2.6378,-0.8748
18560,-1.8979,-0.3857,0.825
18580,-0.7676,-0.4036,0.5186
18600,0.9076,0.417,-0.7018
18620,0.3026,-0.2164,0.6584
18640,-1.7454,-1.3928,1.8464
18660,-0.1356,-1.2538,0.3049
18680,-1.3615,0.2181,-0.0439
18700,-2.4825,-0.5654,0.2793
18720,-0.6174,-0.5859,1.1038
18740,-0.342,-0.4211,0.1012
18760,0.1891,0.6615,-0.1429
18780,-1.4117,-0.1593,0.3187
18800,-2.2759,-3.9995,-0.5731
18820,-1.8958,-0.1967,0.6779
18840,-0.8219,0.0277,0.3003
18860,0.7595,-0.0162,-0.3247
18880,0.5017,-0.354,0.2533
18900,-1.1372,-1.6818,1.693
18920,0.5126,-0.9314,-0.1443
18940,-1.2834,0.3805,0.1721
18960,-2.5568,-0.0444,0.0149
18980,-1.6295,0.2144,1.4641
19000,-0.302,-0.0529,-0.2142
19020,0.2065,0.9523,-0.2146
19040,-1.8381,-0.6339,0.5153
19060,-1.375,-3.3015,-0.8624
19080,-1.7982,-0.2755,0.9368
19100,-0.7745,-0.2983,0.2874
19120,1.0704,0.0211,-0.9384
19140,0.3939,-0.2568,0.3069
19160,-2.704,-2.5006,-1.022
19180,-0.4161,-1.0024,0.301
19200,-1.6522,0.1918,-0.2502
19220,-1.421,-0.0367,0.5043
19240,-0.9927,-0.0767,0.7699
19260,-0.2506,-0.4425,-0.2172
19280,-0.0408,0.7743,-0.8612
19300,-2.151,-0.942,0.1927
19320,-0.5245,-1.0515,0.6044
19340,-1.6613,-0.0293,0.4205
19360,-0.2963,-0.4404,0.1975
19380,1.0322,0.7355,-0.9396
19400,0.2797,-0.3953,0.9897
19420,-2.8994,-3.0558,-2.0404
19440,-0.8182,0.2828,0.375
19460,-1.1305,-0.3871,0.3723
19480,-0.7393,0.339,0.234
19500,-0.8481,-1.1162,0.8175
19520,-0.1467,0.1431,-0.0797
19540,-0.5001,0.6829,-0.4574
19560,-2.267,-1.1694,0.3048
19580,-1.8651,-0.4086,1.2319
19600,-1.538,-0.0457,0.204
19620,-0.2269,-0.1475,0.1095
19640,1.0907,0.4854,-0.8074
19660,-0.4506,-0.0713,0.4211
19680,-2.5996,-3.019,0.1646
19700,-1.2489,-0.4121,0.0626
19720,-1.7139,0.6776,0.1312
19740,-1.0404,-0.3048,-0.2526
19760,-0.4656,-1.0343,0.8293
19780,-0.1458,0.3262,-0.1583
19800,-0.2535,0.7056,-0.6166
19820,-2.5203,-0.7666,0.2914
19840,-1.1995,-1.3671,1.1256
19860,-1.3657,-0.2919,0.4653
19880,-0.5208,-0.104,0.171
19900,0.8195,0.4321,-0.4604
19920,0.568,-0.2394,0.5175
19940,-1.2684,-3.0941,-0.8362
19960,-0.7357,0.2581,-0.2584
19980,-1.4349,-0.234,-0.1255
20000,-0.9792,-0.2605,0.2677
20020,-1.1324,-1.1868,0.8821
20040,-0.2499,-0.476,-0.0881
20060,0.0623,0.5492,-0.0461
20080,-0.9718,0.1211,0.3048
20100,-1.5232,-3.9995,-0.8962
20120,-1.7202,-0.0992,0.3474
20140,-1.4293,-0.0757,0.2178
20160,-0.1501,-0.1206,0.0305
20180,0.2579,0.0916,-0.4781
20200,-0.3024,-0.1893,0.4847
20220,-2.0017,-3.3488,-2.0103
20240,-0.7648,0.0339,0.1477
20260,-1.559,0.153,0.199
20280,-1.2363,-0.4292,0.6403
20300,-0.8302,-0.5435,1.8586
20320,-0.5289,-0.239,0.1074
20340,0.109,0.8405,-0.1545
20360,-1.2985,-0.3916,0.6768
20380,-2.2003,-3.0574,-0.7488
20400,-2.1534,-0.4996,0.6022
20420,-1.196,-0.2245,0.4226
20440,-0.2843,0.0237,0.1393
20460,0.1324,0.1001,-0.6981
20480,0.2981,0.1493,0.6353
20500,-1.7694,-3.9995,-2.6727
20520,-0.9186,0.3289,0.624
20540,-1.1279,-0.4429,0.3436
20560,-1.2906,0.5165,-0.0701
20580,-1.1403,-0.7516,0.598
20600,-0.2897,-0.6748,0.1951
20620,0.2341,0.1444,-0.0435
20640,-0.6117,0.1371,-0.7811
20660,-2.1749,-1.3291,0.0645
20680,-1.4669,-0.4801,0.9747
20700,-1.4324,-0.1709,0.4567
20720,-0.0812,-0.269,0.3076
20740,0.2323,0.1371,-0.2523
20760,-0.4023,0.0225,0.0494
20780,-0.8087,-2.9137,-0.6992
20800,-1.2605,-0.5007,0.408
20820,-0.719,-0.2345,0.5177
20840,-1.5278,0.1511,-0.1759
20860,-0.9916,-0.582,0.3008
20880,-0.7498,-0.1479,0.3721
20900,0.1639,-0.2391,-0.0841
20920,-0.4874,0.0883,0.0765
20940,-2.5524,-3.1746,-0.0674
20960,-1.8796,-0.3458,1.032
20980,-1.2667,-0.1737,0.3346
21000,-0.1005,-0.0795,0.0986
21020,0.5424,0.2816,-0.3827
21040,-0.5244,0.1425,0.2024
21060,-1.7786,-3.3134,-2.1899
21080,-1.0319,0.0287,0.2952
21100,-1.3368,0.3588,-0.1012
21120,-1.2534,-0.0172,0.132
21140,-1.1168,-0.5297,1.4968
21160,-0.3297,-0.2488,0.1467
21180,0.0417,0.6744,-0.1984
21200,-2.0712,-0.8182,1.0015
21220,-0.5471,-2.2968,-0.4645
21240,-1.8359,-0.3738,0.5764
21260,-0.7238,-0.3658,0.3776
21280,0.365,0.231,-0.1671
21300,-0.1805,0.02,0.5648
21320,-0.0291,-0.3158,-0.146
21340,-1.4348,-2.585,1.4469
21360,-1.0551,0.0792,0.0084
21380,-2.0881,-0.051,-0.0386
21400,-1.0443,-0.6047,0.5123
21420,-0.7361,-0.4579,0.4502
21440,0.1028,0.0619,-0.2402
21460,-0.1924,0.3949,-0.3646
21480,-2.2714,-1.5657,0.0272
21500,-1.4259,-0.8762,0.9668
