timestamp,ax,ay,az
0,-0.1737,0.697,-0.353
20,-1.8446,-1.1542,0.1194
40,-1.3271,-1.4332,0.8312
60,-1.677,-0.4454,0.3425
80,-0.9866,-0.2874,0.1658
100,0.0566,0.1387,0.0767
120,-0.1384,0.2795,-0.1484
140,-0.4913,0.136,-0.0599
160,-2.4949,-3.9995,0.6796
180,-1.1302,0.157,0.3562
200,-0.89,-0.1598,0.486
220,-0.886,-0.2533,0.1913
240,-0.4272,-0.5487,0.4187
260,-0.2775,-0.4701,0.1257
280,-0.5267,0.3163,-0.1105
300,-0.6149,0.4009,-0.1801
320,-1.8839,-1.6906,0.0963
340,-1.2837,-1.1779,0.613
360,-1.4348,-0.1576,0.4185
380,-1.2886,-0.332,0.3734
400,-0.5144,-0.316,0.1205
420,-0.1699,0.155,0.058
440,-0.7034,0.3175,0.1746
460,-1.1833,0.2322,-0.1598
480,-0.7581,-0.9718,0.9138
500,-0.8987,-1.041,0.3604
520,-1.1655,-0.5457,-0.1554
540,-0.7123,-0.1005,-0.0107
560,-1.0465,-0.4901,0.1818
580,-0.8121,-0.6044,0.2465
600,-0.7478,-0.4133,0.2371
620,-0.7742,-0.3646,0.2349
640,-0.8428,-0.3195,0.2303
660,-0.8873,-0.2266,0.3036
680,-0.8792,-0.6759,-0.0923
700,-1.0187,-0.5929,0.3634
720,-0.5953,-0.6259,0.2173
740,-1.1036,-0.1091,0.2622
760,-1.256,-0.3966,0.3499
780,-0.7391,-0.4771,0.2911
800,-0.5903,-0.5134,0.2434
820,-0.7239,-0.3252,0.3816
840,-0.8107,-0.3724,0.4087
860,-0.7688,-0.3259,0.3134
880,-0.9384,-0.2532,0.4703
900,-1.0537,-0.4303,0.5332
920,-0.7728,-0.6025,0.3903
940,-0.7615,-0.4082,0.3403
960,-0.8469,-0.3065,0.2704
980,-0.8693,-0.3517,0.329
1000,-0.8469,-0.5121,0.2692
1020,-0.7151,-0.6029,0.0482
1040,-0.7939,-0.6051,0.2053
1060,-0.8959,-0.4191,0.127
1080,-0.9299,-0.3354,0.1705
1100,-0.908,-0.3137,0.2218
1120,-0.8469,-0.4392,0.0917
1140,-0.9229,-0.4985,0.2291
1160,-0.8315,-0.4034,0.1512
1180,-0.9169,-0.4397,0.171
1200,-0.8545,-0.4667,0.2187
1220,-0.8407,-0.4598,0.2408
1240,-0.9038,-0.3625,0.2291
1260,-0.9152,-0.4185,0.2106
1280,-0.8162,-0.5365,0.2126
1300,-0.8158,-0.5156,0.1948
1320,-0.865,-0.4763,0.189
1340,-0.8556,-0.4309,0.2448
1360,-0.8699,-0.4183,0.1986
1380,-0.8613,-0.4603,0.2
1400,-0.837,-0.4869,0.2031
1420,-0.8513,-0.4943,0.2255
1440,-0.8685,-0.4545,0.2123
1460,-0.8789,-0.4215,0.2021
1480,-0.9076,-0.3861,0.1871
1500,-0.9036,-0.4457,0.205
1520,-0.8558,-0.4612,0.1747
1540,-0.8564,-0.4696,0.1677
1560,-0.9032,-0.4435,0.1759
1580,-0.8622,-0.4702,0.1779
1600,-0.85,-0.4912,0.1595
1620,-0.8562,-0.4585,0.1632
1640,-0.8682,-0.4695,0.1807
1660,-0.9014,-0.3938,0.173
1680,-0.902,-0.4362,0.1744
1700,-0.8829,-0.4199,0.1876
1720,-0.9006,-0.4426,0.1917
1740,-0.984,-0.4827,0.1821
1760,-0.8274,-0.5208,0.1412
1780,-0.7589,-0.4579,0.1771
1800,-0.8408,-0.4154,0.1747
1820,-0.8441,-0.3914,0.165
1840,-0.8827,-0.3488,0.2006
1860,-0.9957,-0.2877,0.2017
1880,-0.9924,-0.2924,0.1492
1900,-0.8202,-0.5027,0.1678
1920,-0.8488,-0.5582,0.1359
1940,-0.906,-0.4298,0.1277
1960,-0.928,-0.3917,0.1266
1980,-0.8868,-0.4557,0.1149
2000,-0.8898,-0.4572,0.1282
2020,-0.8892,-0.4608,0.1132
2040,-0.9355,-0.3827,0.0648
2060,-0.922,-0.3817,0.0706
2080,-0.9158,-0.4441,0.0914
2100,-0.8519,-0.5132,0.1071
2120,-0.7976,-0.5383,0.1416
2140,-0.7947,-0.4803,0.1799
2160,-0.8857,-0.4387,0.2219
2180,-0.7417,-0.5,0.1987
2200,-0.809,-0.499,0.2773
2220,-0.825,-0.5018,0.3588
2240,-0.8485,-0.4331,0.4288
2260,-0.8436,-0.429,0.5013
2280,-0.8173,-0.4171,0.4771
2300,-0.7993,-0.4303,0.3843
2320,-0.8317,-0.4115,0.408
2340,-0.8109,-0.3427,0.387
2360,-0.7943,-0.4005,0.3917
2380,-0.8506,-0.4167,0.4114
2400,-0.8413,-0.3925,0.3365
2420,-0.9102,-0.3079,0.3854
2440,-0.8413,-0.4614,0.443
2460,-0.8878,-0.3248,0.3231
2480,-0.8591,-0.2792,0.2968
2500,-0.8387,-0.4377,0.2924
2520,-0.8759,-0.4061,0.27
2540,-0.8632,-0.3663,0.2605
2560,-0.8884,-0.3757,0.2565
2580,-0.861,-0.4382,0.2302
2600,-0.8337,-0.4801,0.1846
2620,-0.8956,-0.4376,0.1858
2640,-0.9257,-0.3408,0.1714
2660,-0.8972,-0.3694,0.1782
2680,-0.9294,-0.3777,0.161
2700,-0.8969,-0.4287,0.1807
2720,-0.9708,-0.283,0.1256
2740,-0.9191,-0.327,0.1697
2760,-0.9871,-0.2703,0.1302
2780,-0.9583,-0.3234,0.1322
2800,-0.9158,-0.4097,0.0902
2820,-0.8192,-0.5178,0.1538
2840,-0.8638,-0.4558,0.219
2860,-0.9131,-0.3671,0.2167
2880,-0.8857,-0.374,0.2006
2900,-0.856,-0.4512,0.1904
2920,-0.8519,-0.5125,0.2104
2940,-0.8478,-0.4943,0.1925
2960,-0.8746,-0.4637,0.1869
2980,-0.8647,-0.4885,0.1709
3000,-0.8273,-0.5527,0.1483
3020,-0.8292,-0.564,0.1665
3040,-0.8066,-0.5255,0.1832
3060,-0.843,-0.4924,0.1943
3080,-0.8457,-0.5007,0.1849
3100,-0.8623,-0.4901,0.1724
3120,-0.864,-0.4531,0.1991
3140,-0.8623,-0.4811,0.1973
3160,-0.8301,-0.4746,0.2026
3180,-0.8186,-0.5128,0.2089
3200,-0.8282,-0.5011,0.2317
3220,-0.8185,-0.5333,0.2041
3240,-0.8251,-0.571,0.2091
3260,-0.8058,-0.5676,0.2191
3280,-0.8113,-0.556,0.2164
3300,-0.8203,-0.5142,0.218
3320,-0.8278,-0.5039,0.2236
3340,-0.7765,-0.5327,0.2402
3360,-0.7897,-0.4246,0.3936
3380,-0.7804,-0.2686,0.1797
3400,-0.7258,-0.5391,0.093
3420,-0.696,-0.3655,0.0054
3440,-0.748,-0.4312,0.1459
3460,-0.8528,-0.1538,0.0941
3480,-0.9392,-0.1576,0.123
3500,-0.7122,-0.1285,0.2227
3520,-0.6205,-0.1722,0.2722
3540,-1.03,0.0258,0.1353
3560,-0.9749,-0.2488,0.1964
3580,-1.0155,0.1874,0.0862
3600,-0.8597,0.2482,-0.0116
3620,-1.0636,0.3049,0.0951
3640,-1.0399,0.3529,0.071
3660,-0.845,0.6956,0.1053
3680,-1.014,0.6433,0.1591
3700,-1.0568,0.7454,0.1656
3720,-1.0637,0.5476,0.2019
3740,-0.932,0.5573,0.1552
3760,-0.8524,0.7334,0.1034
3780,-0.8011,0.6683,0.0681
3800,-0.8613,0.6116,0.1
3820,-0.6399,0.6497,0.0474
3840,-0.7394,0.7358,0.1344
3860,-0.7238,0.708,0.1632
3880,-0.7339,0.6993,0.1323
3900,-0.7034,0.6473,0.1444
3920,-0.7526,0.7096,0.1111
3940,-0.7714,0.6761,0.14
3960,-0.7113,0.7183,0.1249
3980,-0.6924,0.7534,0.0779
4000,-0.6355,0.6521,0.0756
4020,-0.6796,0.6581,0.0786
4040,-0.6062,0.7113,0.0896
4060,-0.719,0.6592,0.1268
4080,-0.7098,0.7008,0.1617
4100,-0.6848,0.688,0.1508
4120,-0.7206,0.6639,0.1451
4140,-0.6729,0.6606,0.1603
4160,-0.7043,0.7076,0.1531
4180,-0.6869,0.6926,0.1864
4200,-0.6802,0.7156,0.1708
4220,-0.6714,0.6705,0.1626
4240,-0.672,0.6952,0.1522
4260,-0.6938,0.7108,0.1722
4280,-0.684,0.6648,0.1637
4300,-0.6807,0.6967,0.1636
4320,-0.6826,0.6941,0.1865
4340,-0.676,0.714,0.1819
4360,-0.6732,0.7319,0.1846
4380,-0.6592,0.6935,0.1736
4400,-0.6556,0.7308,0.1698
4420,-0.6523,0.7322,0.1606
4440,-0.6548,0.7069,0.1785
4460,-0.6437,0.6794,0.1984
4480,-0.6642,0.7097,0.1848
4500,-0.6831,0.746,0.2202
4520,-0.6647,0.6819,0.2207
4540,-0.6282,0.6771,0.2084
4560,-0.6655,0.7141,0.2189
4580,-0.6133,0.7161,0.2089
4600,-0.6421,0.7369,0.2224
4620,-0.6459,0.704,0.2152
4640,-0.6406,0.6603,0.2095
4660,-0.6619,0.7208,0.2266
4680,-0.6276,0.7418,0.2173
4700,-0.6124,0.6827,0.1835
4720,-0.6444,0.698,0.2311
4740,-0.6565,0.7471,0.2074
4760,-0.6473,0.7397,0.1941
4780,-0.6608,0.7047,0.1918
4800,-0.674,0.7344,0.1963
4820,-0.6366,0.7366,0.1781
4840,-0.6394,0.7073,0.1805
4860,-0.6821,0.6879,0.1825
4880,-0.698,0.6884,0.2268
4900,-0.6919,0.7455,0.2157
4920,-0.63,0.7365,0.1964
4940,-0.6737,0.7014,0.2146
4960,-0.6366,0.746,0.2319
4980,-0.6718,0.704,0.2615
5000,-0.7283,0.7499,0.2466
5020,-0.6682,0.6554,0.2513
5040,-0.7969,0.6533,0.2667
5060,-0.8618,0.7803,0.2815
5080,-0.804,0.7152,0.2909
5100,-0.8367,0.621,0.2722
5120,-0.9401,0.5073,0.3604
5140,-0.8816,0.4916,0.2804
5160,-0.8264,0.3386,0.2915
5180,-0.8496,0.3643,0.2228
5200,-0.9044,0.2701,0.2578
5220,-0.9326,0.217,0.2712
5240,-0.9265,0.2186,0.2101
5260,-0.98,0.0885,0.2598
5280,-1.032,0.1301,0.2052
5300,-1.0751,-0.0009,0.2233
5320,-0.9978,-0.0377,0.2045
5340,-0.9584,0.0088,0.2534
5360,-0.9485,-0.0439,0.2289
5380,-0.8326,-0.1792,0.2736
5400,-0.8568,-0.0895,0.2485
5420,-0.851,-0.0878,0.2562
5440,-0.7378,-0.1052,0.26
5460,-0.8246,-0.2313,0.2461
5480,-0.8196,-0.2133,0.275
5500,-0.7969,-0.2687,0.2983
5520,-0.8831,-0.3912,0.2709
5540,-0.7792,-0.4642,0.3624
5560,-0.7671,-0.4861,0.2418
5580,-0.8889,-0.2922,0.1786
5600,-0.8405,-0.4028,0.1282
5620,-0.7999,-0.4359,0.0995
5640,-0.8846,-0.3831,0.1128
5660,-0.9691,-0.3621,0.0848
5680,-0.8759,-0.5199,0.056
5700,-0.8481,-0.4702,0.0662
5720,-0.944,-0.402,0.1296
5740,-0.9451,-0.3308,0.0201
5760,-0.9596,-0.3348,-0.033
5780,-0.8888,-0.3981,0.0934
5800,-0.9102,-0.4102,0.1033
5820,-0.9103,-0.4819,0.1356
5840,-0.9113,-0.3304,0.0907
5860,-0.9462,-0.3164,0.0817
5880,-0.9501,-0.3055,0.0793
5900,-0.9177,-0.41,0.09
5920,-0.9081,-0.4078,0.1013
5940,-0.8744,-0.4552,0.076
5960,-0.8966,-0.4541,0.0922
5980,-0.9038,-0.4071,0.1117
6000,-0.9104,-0.3796,0.1401
6020,-0.8979,-0.425,0.0991
6040,-0.9159,-0.4028,0.1061
6060,-0.8453,-0.4835,0.0969
6080,-0.8558,-0.4598,0.1119
6100,-0.8307,-0.498,0.1023
6120,-0.879,-0.5231,0.1216
6140,-0.9227,-0.4558,0.1296
6160,-0.918,-0.394,0.1353
6180,-0.8657,-0.4497,0.1283
6200,-0.8571,-0.4709,0.1306
6220,-0.8608,-0.4802,0.1267
6240,-0.8455,-0.5005,0.1085
6260,-0.8639,-0.4718,0.1299
6280,-0.8831,-0.4751,0.1394
6300,-0.8635,-0.463,0.1473
6320,-0.8615,-0.4974,0.1497
6340,-0.8722,-0.4714,0.1444
6360,-0.859,-0.4937,0.1484
6380,-0.8529,-0.4893,0.1525
6400,-0.8627,-0.4736,0.1537
6420,-0.8795,-0.4668,0.16
6440,-0.8712,-0.4623,0.1478
6460,-0.8562,-0.49,0.151
6480,-0.8662,-0.4905,0.1565
6500,-0.8538,-0.4795,0.1523
6520,-0.8701,-0.4409,0.1606
6540,-0.887,-0.4419,0.1681
6560,-0.8918,-0.4279,0.1669
6580,-0.8636,-0.4352,0.1732
6600,-0.8899,-0.4164,0.1958
6620,-0.8816,-0.4186,0.1893
6640,-0.8759,-0.4355,0.1807
6660,-0.8706,-0.4562,0.1764
6680,-0.8689,-0.4746,0.168
6700,-0.8752,-0.4492,0.1718
6720,-0.856,-0.4883,0.1753
6740,-0.8833,-0.4413,0.1659
6760,-0.8741,-0.4308,0.1737
6780,-0.885,-0.4386,0.1698
6800,-0.8834,-0.4418,0.1553
6820,-0.8821,-0.4337,0.1667
6840,-0.8715,-0.4391,0.1653
6860,-0.8933,-0.4132,0.1726
6880,-0.8505,-0.4941,0.2025
6900,-0.8695,-0.4448,0.1816
6920,-0.9215,-0.4368,0.1875
6940,-0.8571,-0.437,0.1835
6960,-0.8524,-0.441,0.1876
6980,-0.9009,-0.4175,0.1879
7000,-0.8867,-0.428,0.1874
7020,-0.8721,-0.4155,0.1704
7040,-0.8655,-0.46,0.181
7060,-0.8927,-0.423,0.1827
7080,-0.8781,-0.4456,0.187
7100,-0.8774,-0.4631,0.1797
7120,-0.876,-0.3864,0.1887
7140,-0.8888,-0.4249,0.1931
7160,-0.8844,-0.405,0.1926
7180,-0.9054,-0.3427,0.1814
7200,-0.8539,-0.4779,0.2068
7220,-0.8575,-0.4175,0.2078
7240,-0.8751,-0.4468,0.2046
7260,-0.8837,-0.4138,0.1932
7280,-0.9032,-0.3955,0.1887
7300,-0.876,-0.4253,0.2029
7320,-0.8726,-0.4459,0.197
7340,-0.8795,-0.4506,0.1951
7360,-0.8953,-0.3944,0.2003
7380,-0.8788,-0.4114,0.1665
7400,-0.8993,-0.4281,0.1595
7420,-0.8734,-0.4557,0.1748
7440,-0.877,-0.4326,0.1926
7460,-0.8909,-0.3872,0.1667
7480,-0.8914,-0.4148,0.1746
7500,-0.8831,-0.4131,0.1779
7520,-0.875,-0.4236,0.1807
7540,-0.8853,-0.4419,0.2014
7560,-0.8665,-0.402,0.2103
7580,-0.9004,-0.4403,0.2008
7600,-0.8586,-0.4696,0.1627
7620,-0.8612,-0.4877,0.1702
7640,-0.8901,-0.4075,0.1643
7660,-0.8881,-0.4312,0.1779
7680,-0.8602,-0.459,0.174
7700,-0.8833,-0.4329,0.1866
7720,-0.8922,-0.4232,0.1703
7740,-0.8993,-0.4149,0.1686
7760,-0.8771,-0.437,0.1522
7780,-0.8854,-0.4371,0.1438
7800,-0.9041,-0.3916,0.1394
7820,-0.8672,-0.4484,0.1284
7840,-0.8787,-0.5023,0.1377
7860,-0.8827,-0.4714,0.1393
7880,-0.9208,-0.3835,0.1178
7900,-0.8888,-0.4523,0.1245
7920,-0.8535,-0.4564,0.1345
7940,-0.9022,-0.4148,0.1359
7960,-0.8638,-0.4487,0.1567
7980,-0.8842,-0.4822,0.1614
8000,-0.8695,-0.4813,0.1307
8020,-0.844,-0.5084,0.1505
8040,-0.8922,-0.3911,0.1478
8060,-0.8651,-0.4609,0.1754
8080,-0.8601,-0.4744,0.1652
8100,-0.88,-0.4507,0.1683
8120,-0.8652,-0.4598,0.1582
8140,-0.8737,-0.4608,0.1627
8160,-0.8605,-0.4767,0.1711
8180,-0.8622,-0.4749,0.1685
8200,-0.8607,-0.4687,0.1752
8220,-0.879,-0.4302,0.1877
8240,-0.8824,-0.4296,0.2002
8260,-0.8788,-0.4319,0.1979
8280,-0.8624,-0.4366,0.204
8300,-0.8701,-0.4338,0.2054
8320,-0.8802,-0.4111,0.2001
8340,-0.884,-0.3971,0.2107
8360,-0.8773,-0.4095,0.2134
8380,-0.8821,-0.4142,0.2045
8400,-0.8816,-0.3993,0.2013
8420,-0.8894,-0.4016,0.1956
8440,-0.8868,-0.4196,0.2048
8460,-0.876,-0.4102,0.2094
8480,-0.8813,-0.3978,0.2073
8500,-0.8796,-0.4313,0.1985
8520,-0.8779,-0.4263,0.1827
8540,-0.8901,-0.4117,0.2015
8560,-0.8757,-0.4337,0.193
8580,-0.8606,-0.4343,0.2024
8600,-0.8641,-0.4459,0.1904
8620,-0.8667,-0.4745,0.202
8640,-0.8773,-0.4464,0.1981
8660,-0.8933,-0.4281,0.2012
8680,-0.8859,-0.4081,0.2032
8700,-0.8829,-0.4141,0.2056
8720,-0.8766,-0.4255,0.1959
8740,-0.8669,-0.4639,0.1833
8760,-0.8567,-0.4535,0.1681
8780,-0.8765,-0.4587,0.1597
8800,-0.8612,-0.4698,0.1633
8820,-0.8643,-0.499,0.1567
8840,-0.8654,-0.481,0.1464
8860,-0.8682,-0.4622,0.1573
8880,-0.8676,-0.4744,0.1472
8900,-0.8729,-0.4718,0.1531
8920,-0.8767,-0.4424,0.1501
8940,-0.8799,-0.4456,0.162
8960,-0.8673,-0.463,0.1615
8980,-0.871,-0.4507,0.1707
9000,-0.8707,-0.457,0.168
9020,-0.868,-0.4631,0.1658
9040,-0.8717,-0.4548,0.1682
9060,-0.8754,-0.4521,0.1689
9080,-0.876,-0.4421,0.1769
9100,-0.8712,-0.4501,0.1898
9120,-0.8684,-0.4583,0.204
9140,-0.858,-0.4506,0.198
9160,-0.8713,-0.438,0.1989
9180,-0.8738,-0.4312,0.2009
9200,-0.8848,-0.4181,0.1991
9220,-0.8795,-0.4397,0.2031
9240,-0.8638,-0.4406,0.21
9260,-0.8729,-0.4308,0.2101
9280,-0.8693,-0.4181,0.2079
9300,-0.8713,-0.4298,0.2079
9320,-0.8721,-0.4401,0.201
9340,-0.877,-0.437,0.1997
9360,-0.8722,-0.4288,0.2068
9380,-0.8796,-0.4382,0.2031
9400,-0.8757,-0.4463,0.1945
9420,-0.873,-0.4336,0.1936
9440,-0.876,-0.4685,0.2056
9460,-0.8564,-0.469,0.1953
9480,-0.8671,-0.453,0.2006
9500,-0.8843,-0.4052,0.199
9520,-0.8861,-0.4017,0.1943
9540,-0.8831,-0.424,0.1954
9560,-0.8824,-0.4117,0.2047
9580,-0.8842,-0.4163,0.1985
9600,-0.8722,-0.4274,0.1942
9620,-0.8751,-0.4379,0.2019
9640,-0.8861,-0.4214,0.1954
9660,-0.8871,-0.4178,0.1899
9680,-0.8789,-0.4244,0.1904
9700,-0.8792,-0.4233,0.1949
9720,-0.8812,-0.421,0.1921
9740,-0.8845,-0.4214,0.1904
9760,-0.8815,-0.4192,0.1923
9780,-0.8827,-0.4244,0.1945
9800,-0.8826,-0.4199,0.2006
9820,-0.8698,-0.447,0.2051
9840,-0.8674,-0.4474,0.203
9860,-0.8834,-0.4225,0.2178
9880,-0.8727,-0.4218,0.1891
9900,-0.8792,-0.429,0.1895
9920,-0.8809,-0.4163,0.187
9940,-0.8936,-0.4092,0.1902
9960,-0.88,-0.4204,0.1924
9980,-0.8939,-0.4185,0.1882
10000,-0.8702,-0.4279,0.1912
10020,-0.8743,-0.4467,0.1993
10040,-0.8689,-0.4376,0.1936
10060,-0.8729,-0.4138,0.2015
10080,-0.8854,-0.4281,0.1993
10100,-0.8792,-0.4327,0.2052
10120,-0.8805,-0.4326,0.2009
10140,-0.8674,-0.4266,0.196
10160,-0.8754,-0.4456,0.1962
10180,-0.8751,-0.4408,0.1888
10200,-0.8756,-0.4342,0.2008
10220,-0.8783,-0.4181,0.198
10240,-0.8778,-0.4323,0.2017
10260,-0.8763,-0.434,0.1986
10280,-0.8744,-0.4387,0.205
10300,-0.8698,-0.4445,0.1987
10320,-0.8694,-0.4434,0.2047
10340,-0.8743,-0.4342,0.204
10360,-0.8799,-0.4087,0.207
10380,-0.8817,-0.4247,0.2084
10400,-0.8705,-0.4379,0.207
10420,-0.864,-0.4567,0.1957
10440,-0.8647,-0.475,0.1785
10460,-0.8861,-0.4088,0.1987
10480,-0.8716,-0.4025,0.2007
10500,-0.8887,-0.3838,0.2018
10520,-0.8958,-0.4169,0.201
10540,-0.8655,-0.4573,0.1791
10560,-0.8741,-0.4774,0.1759
10580,-0.8652,-0.4464,0.1759
10600,-0.8647,-0.4536,0.1774
10620,-0.8671,-0.4065,0.1743
10640,-0.8732,-0.4222,0.1853
10660,-0.8729,-0.4532,0.1816
10680,-0.8667,-0.4642,0.1873
10700,-0.8643,-0.4734,0.1808
10720,-0.8622,-0.4866,0.1851
10740,-0.8497,-0.4879,0.1823
10760,-0.8602,-0.4885,0.1801
10780,-0.8586,-0.4476,0.1694
10800,-0.8619,-0.4779,0.1696
10820,-0.873,-0.4684,0.1746
10840,-0.8589,-0.4802,0.1671
10860,-0.8595,-0.4801,0.1638
10880,-0.8634,-0.4884,0.1698
10900,-0.8575,-0.4851,0.1611
10920,-0.8593,-0.4696,0.162
10940,-0.8635,-0.4807,0.1646
10960,-0.8662,-0.4714,0.1682
10980,-0.8632,-0.465,0.1671
11000,-0.8658,-0.4642,0.1804
11020,-0.8601,-0.475,0.1781
11040,-0.8606,-0.4795,0.1729
11060,-0.8588,-0.4713,0.1754
11080,-0.8669,-0.4618,0.1777
11100,-0.8635,-0.4714,0.1702
11120,-0.8634,-0.4739,0.1722
11140,-0.8646,-0.465,0.1788
11160,-0.8617,-0.4579,0.1786
11180,-0.8596,-0.4729,0.1764
11200,-0.863,-0.4674,0.1766
11220,-0.8647,-0.4611,0.1815
11240,-0.8633,-0.4587,0.1882
11260,-0.8636,-0.4687,0.1786
11280,-0.864,-0.4656,0.1812
11300,-0.8588,-0.4635,0.1743
11320,-0.8619,-0.4698,0.177
11340,-0.8596,-0.4683,0.1787
11360,-0.8624,-0.4567,0.1832
11380,-0.8606,-0.4642,0.1831
11400,-0.8604,-0.4768,0.176
11420,-0.8591,-0.4803,0.1682
11440,-0.8522,-0.4813,0.1719
11460,-0.8575,-0.4851,0.1766
11480,-0.8572,-0.4895,0.1718
11500,-0.8595,-0.4808,0.1719
11520,-0.8579,-0.4771,0.1709
11540,-0.8577,-0.4849,0.1731
11560,-0.8601,-0.4822,0.1686
11580,-0.8594,-0.4703,0.1724
11600,-0.8669,-0.4725,0.1788
11620,-0.8569,-0.479,0.1718
11640,-0.8594,-0.4657,0.1772
11660,-0.8672,-0.4589,0.1801
11680,-0.8679,-0.4508,0.1783
11700,-0.8644,-0.465,0.1722
11720,-0.8623,-0.4603,0.1788
11740,-0.8656,-0.4728,0.1777
11760,-0.856,-0.4802,0.1763
11780,-0.8605,-0.4648,0.1788
11800,-0.865,-0.4518,0.184
11820,-0.8695,-0.4513,0.1809
11840,-0.8665,-0.4572,0.1803
11860,-0.87,-0.4579,0.1874
11880,-0.8634,-0.4664,0.1873
11900,-0.8545,-0.474,0.1831
11920,-0.8641,-0.4655,0.1821
11940,-0.8673,-0.4542,0.1844
11960,-0.8673,-0.4524,0.1825
11980,-0.8635,-0.4696,0.1951
12000,-0.8538,-0.48,0.1876
12020,-0.8615,-0.474,0.188
12040,-0.8556,-0.4733,0.1859
12060,-0.8553,-0.4714,0.1849
12080,-0.8669,-0.4515,0.1862
12100,-0.868,-0.4536,0.1895
12120,-0.8658,-0.4417,0.1964
12140,-0.8663,-0.4419,0.1931
12160,-0.8728,-0.4451,0.193
12180,-0.8682,-0.4584,0.1879
12200,-0.8577,-0.481,0.1842
12220,-0.8544,-0.4795,0.1807
12240,-0.8658,-0.4683,0.1808
12260,-0.8655,-0.4445,0.1826
12280,-0.8689,-0.4508,0.1857
12300,-0.8687,-0.4436,0.1915
12320,-0.8691,-0.4573,0.183
12340,-0.8591,-0.4784,0.1753
12360,-0.8551,-0.478,0.1738
12380,-0.8651,-0.4702,0.1792
12400,-0.8624,-0.4661,0.1769
12420,-0.8639,-0.4672,0.1776
12440,-0.8618,-0.467,0.1801
12460,-0.8595,-0.4687,0.1694
12480,-0.8628,-0.478,0.1716
12500,-0.8606,-0.478,0.1698
12520,-0.8665,-0.4691,0.1732
12540,-0.8599,-0.4734,0.1755
12560,-0.8586,-0.4687,0.1775
12580,-0.8645,-0.4738,0.1752
12600,-0.8618,-0.4602,0.1729
12620,-0.8605,-0.4806,0.1758
12640,-0.8585,-0.4788,0.1707
12660,-0.8615,-0.4728,0.1731
12680,-0.8635,-0.4644,0.1758
12700,-0.8574,-0.476,0.178
12720,-0.8616,-0.473,0.1719
12740,-0.8583,-0.4564,0.1781
12760,-0.8646,-0.4771,0.1794
12780,-0.8572,-0.4863,0.1713
12800,-0.8523,-0.481,0.1753
12820,-0.863,-0.4713,0.1797
12840,-0.8635,-0.4681,0.1746
12860,-0.8585,-0.4712,0.1748
12880,-0.8582,-0.4711,0.179
12900,-0.8605,-0.4779,0.1727
12920,-0.8599,-0.4785,0.172
12940,-0.8627,-0.4644,0.1758
12960,-0.8607,-0.4617,0.1775
12980,-0.8638,-0.4816,0.1714
13000,-0.8547,-0.4717,0.1741
13020,-0.8538,-0.481,0.1807
13040,-0.8652,-0.4744,0.1737
13060,-0.8584,-0.4697,0.174
13080,-0.8633,-0.4706,0.1757
13100,-0.8604,-0.4606,0.1832
13120,-0.8596,-0.467,0.181
13140,-0.8611,-0.4723,0.1776
13160,-0.8567,-0.4775,0.1692
13180,-0.8542,-0.4882,0.1709
13200,-0.853,-0.4915,0.1799
13220,-0.8419,-0.501,0.1825
13240,-0.8568,-0.4895,0.1827
13260,-0.8524,-0.4744,0.1768
13280,-0.8591,-0.4735,0.1772
13300,-0.8544,-0.4889,0.1742
13320,-0.8561,-0.4701,0.1842
13340,-0.8628,-0.4722,0.1742
13360,-0.856,-0.4856,0.1765
13380,-0.8538,-0.4788,0.1759
13400,-0.8605,-0.4707,0.1785
13420,-0.8593,-0.4708,0.1788
13440,-0.8611,-0.4734,0.1838
13460,-0.8656,-0.4685,0.1761
13480,-0.8606,-0.4691,0.1763
13500,-0.8591,-0.4779,0.1812
13520,-0.858,-0.4744,0.1741
13540,-0.8625,-0.4623,0.1803
13560,-0.8647,-0.4541,0.1686
13580,-0.8661,-0.4695,0.1689
13600,-0.8645,-0.4702,0.1702
13620,-0.8606,-0.4584,0.1743
13640,-0.8601,-0.4723,0.1747
13660,-0.8553,-0.4735,0.1733
13680,-0.8601,-0.4893,0.1625
13700,-0.8562,-0.4897,0.1624
13720,-0.8531,-0.4906,0.1605
13740,-0.8497,-0.4988,0.1582
13760,-0.8518,-0.4825,0.175
13780,-0.8644,-0.4769,0.1737
13800,-0.855,-0.4847,0.1664
13820,-0.8481,-0.4908,0.1671
13840,-0.8546,-0.4877,0.1677
13860,-0.8557,-0.4923,0.1622
13880,-0.8541,-0.491,0.1726
13900,-0.8513,-0.4927,0.1782
13920,-0.8542,-0.4828,0.172
13940,-0.8533,-0.4899,0.1714
13960,-0.8534,-0.4905,0.1744
13980,-0.8585,-0.4739,0.1781
14000,-0.8632,-0.4681,0.1818
14020,-0.8579,-0.4679,0.1782
14040,-0.8625,-0.4829,0.1686
14060,-0.8531,-0.4697,0.1731
14080,-0.8585,-0.4679,0.1785
14100,-0.8601,-0.4852,0.1714
14120,-0.8596,-0.465,0.1727
14140,-0.8644,-0.4701,0.1702
14160,-0.8595,-0.4769,0.1744
14180,-0.8612,-0.4785,0.1696
14200,-0.8594,-0.4642,0.1683
14220,-0.8621,-0.4684,0.1625
14240,-0.8654,-0.4785,0.1646
14260,-0.8617,-0.4705,0.1582
14280,-0.8632,-0.4666,0.1655
14300,-0.8589,-0.48,0.1656
14320,-0.8627,-0.4735,0.1694
14340,-0.8627,-0.4639,0.1753
14360,-0.8647,-0.464,0.1699
14380,-0.8613,-0.4698,0.1593
14400,-0.8622,-0.4727,0.1616
14420,-0.86,-0.4718,0.1649
14440,-0.8568,-0.4808,0.162
14460,-0.8564,-0.489,0.1652
14480,-0.8531,-0.4916,0.1635
14500,-0.8531,-0.4893,0.1707
14520,-0.8501,-0.4867,0.1669
14540,-0.8588,-0.4858,0.1659
14560,-0.8572,-0.4728,0.1584
14580,-0.8612,-0.4786,0.1658
14600,-0.8535,-0.4894,0.1675
14620,-0.851,-0.4991,0.1578
14640,-0.8507,-0.4888,0.163
14660,-0.8616,-0.4849,0.1656
14680,-0.8511,-0.4918,0.1633
14700,-0.8521,-0.4817,0.1642
14720,-0.8578,-0.4734,0.1577
14740,-0.8604,-0.4929,0.1573
14760,-0.8497,-0.5052,0.1586
14780,-0.8447,-0.5006,0.1735
14800,-0.8475,-0.49,0.1652
14820,-0.8557,-0.4962,0.1631
14840,-0.8523,-0.4966,0.1587
14860,-0.8485,-0.4889,0.1627
14880,-0.8527,-0.4888,0.1646
14900,-0.8549,-0.4874,0.1619
14920,-0.8551,-0.4884,0.1578
14940,-0.8495,-0.4888,0.1635
14960,-0.8569,-0.49,0.1647
14980,-0.8518,-0.4921,0.1602
15000,-0.8536,-0.4885,0.1609
15020,-0.8546,-0.491,0.1631
15040,-0.8489,-0.4922,0.1641
15060,-0.8496,-0.493,0.1611
15080,-0.8511,-0.4966,0.1691
15100,-0.8499,-0.4888,0.1636
15120,-0.8546,-0.4937,0.1584
15140,-0.8474,-0.4977,0.1614
15160,-0.8557,-0.4904,0.1627
15180,-0.8535,-0.4922,0.1603
15200,-0.8529,-0.4907,0.1616
15220,-0.8507,-0.4962,0.1586
15240,-0.8516,-0.4891,0.163
15260,-0.8528,-0.4962,0.1599
15280,-0.8505,-0.4999,0.1573
15300,-0.8497,-0.4962,0.1605
15320,-0.8525,-0.4906,0.1616
15340,-0.8525,-0.4951,0.1622
15360,-0.8524,-0.4939,0.1578
15380,-0.8518,-0.5011,0.1625
15400,-0.8507,-0.4867,0.157
15420,-0.8527,-0.4897,0.1683
15440,-0.8541,-0.4777,0.1763
15460,-0.8561,-0.4801,0.1793
15480,-0.849,-0.4843,0.174
15500,-0.8499,-0.4995,0.1722
15520,-0.8486,-0.4938,0.1727
15540,-0.8527,-0.4836,0.1764
15560,-0.8522,-0.4895,0.1757
15580,-0.8518,-0.4926,0.1725
15600,-0.8502,-0.4877,0.1736
15620,-0.8508,-0.4846,0.1742
15640,-0.8483,-0.4933,0.1736
15660,-0.8529,-0.495,0.1715
15680,-0.8521,-0.4849,0.1815
15700,-0.8505,-0.4854,0.1743
15720,-0.8477,-0.4963,0.1729
15740,-0.8501,-0.4943,0.1741
15760,-0.8453,-0.4856,0.1808
15780,-0.8527,-0.4886,0.1749
15800,-0.848,-0.4893,0.1733
15820,-0.8485,-0.4929,0.1718
15840,-0.8491,-0.4882,0.1727
15860,-0.8511,-0.4961,0.1752
15880,-0.8506,-0.5074,0.1653
15900,-0.8409,-0.5134,0.168
15920,-0.847,-0.4929,0.1702
15940,-0.8517,-0.4875,0.1743
15960,-0.8552,-0.4751,0.1769
15980,-0.8546,-0.4857,0.1765
16000,-0.8497,-0.4832,0.1713
16020,-0.8481,-0.5049,0.1847
16040,-0.8586,-0.4659,0.187
16060,-0.8665,-0.4507,0.1829
16080,-0.8535,-0.4707,0.196
16100,-0.8585,-0.4797,0.2069
16120,-0.8499,-0.4751,0.204
16140,-0.8531,-0.4772,0.2092
16160,-0.8531,-0.4731,0.2042
16180,-0.8551,-0.4799,0.2023
16200,-0.8608,-0.4521,0.2053
16220,-0.8756,-0.4156,0.2042
16240,-0.884,-0.4204,0.2058
16260,-0.8801,-0.4287,0.2041
16280,-0.8812,-0.4271,0.1987
16300,-0.8661,-0.4365,0.1965
16320,-0.8665,-0.4503,0.207
16340,-0.8622,-0.4489,0.2007
16360,-0.8574,-0.4464,0.2014
16380,-0.8638,-0.4434,0.2106
16400,-0.8652,-0.4468,0.2096
16420,-0.8711,-0.4432,0.2084
16440,-0.8733,-0.4404,0.2108
16460,-0.8676,-0.4397,0.2041
16480,-0.8673,-0.4513,0.1985
16500,-0.855,-0.4518,0.1981
16520,-0.8668,-0.4608,0.2037
16540,-0.8654,-0.4441,0.1908
16560,-0.8629,-0.4609,0.1917
16580,-0.8549,-0.4534,0.1993
16600,-0.8768,-0.4946,0.2041
16620,-0.8573,-0.5005,0.228
16640,-0.8168,-0.5453,0.2367
16660,-0.8418,-0.4949,0.1552
16680,-0.8137,-0.5485,0.1892
16700,-0.8478,-0.3656,0.2435
16720,-0.9742,-0.2482,0.2991
16740,-0.8744,-0.4718,0.2161
16760,-0.87,-0.4541,0.1848
16780,-0.9109,-0.3545,0.0924
16800,-0.9768,-0.3054,0.1072
16820,-0.9182,-0.3402,0.0923
16840,-0.9429,-0.3226,0.0966
16860,-0.9279,-0.3912,0.1094
16880,-0.9271,-0.3953,0.1135
16900,-0.9268,-0.3339,0.1378
16920,-0.913,-0.3417,0.1378
16940,-0.8928,-0.3556,0.1348
16960,-0.8567,-0.3625,0.1155
16980,-0.9742,-0.3063,0.0684
17000,-0.9178,-0.347,0.0933
17020,-0.8954,-0.353,0.1293
17040,-1.031,-0.1632,0.2195
17060,-1.0227,-0.2666,0.1572
17080,-0.9875,-0.5032,0.087
17100,-0.5905,-0.694,0.22
17120,-1.0267,-0.2446,0.6814
17140,-1.3948,0.0304,0.3699
17160,-1.2122,-0.0944,0.3043
17180,-0.6364,-0.3022,0.2114
17200,-0.6671,-0.3015,0.1918
17220,-0.7279,-0.0135,0.2926
17240,-0.7632,0.0164,0.4424
17260,-1.204,0.0618,0.3859
17280,-0.7375,-0.0129,0.312
17300,-1.4943,-0.5797,0.3767
17320,-0.6537,-0.5825,0.0027
17340,-0.7301,-0.4846,-0.0996
17360,-0.9584,-0.6182,0.1233
17380,-0.7659,-0.4358,0.2415
17400,-0.8362,-0.5006,0.1652
17420,-0.809,-0.5273,0.1768
17440,-0.7639,-0.3605,0.2449
17460,-0.8765,-0.3795,0.1656
17480,-0.875,-0.3489,0.12
17500,-0.9275,-0.3169,0.0585
17520,-0.9419,-0.3815,0.0254
17540,-0.8868,-0.739,0.3608
17560,-0.7537,-0.6483,0.4998
17580,-1.1951,-0.526,0.4164
17600,-0.9534,-0.3525,0.4438
17620,-0.8502,-0.2823,0.186
17640,-0.7628,-0.1497,0.3145
17660,-0.8467,-0.0623,0.3718
17680,-0.8899,0.0835,0.1572
17700,-0.9135,-0.4192,0.4009
17720,-1.0365,-0.578,0.3633
17740,-0.9695,-0.6323,0.204
17760,-0.7495,-0.0283,0.0327
17780,-0.9697,-0.0132,-0.1449
17800,-1.0541,-0.5709,0.1722
17820,-0.8752,-0.51,0.1038
17840,-0.8744,-0.3799,0.1543
17860,-0.9539,-0.349,0.1215
17880,-0.8799,-0.4126,0.1719
17900,-0.818,-0.4146,0.1295
17920,-0.879,-0.3267,0.1458
17940,-1.0238,-0.3047,0.1788
17960,-1.057,-0.2886,0.1404
17980,-0.9553,-0.3312,0.0959
18000,-0.881,-0.3619,0.1012
18020,-0.9203,-0.4318,0.1272
18040,-0.9125,-0.3806,0.1161
18060,-0.9236,-0.4225,0.1515
18080,-0.8412,-0.4639,0.1321
18100,-0.8268,-0.4503,0.1697
18120,-0.8009,-0.4586,0.1371
18140,-0.8284,-0.5,0.1899
18160,-0.8289,-0.5171,0.2979
18180,-0.8384,-0.5197,0.3328
18200,-0.8402,-0.4585,0.3867
18220,-0.9054,-0.3174,0.4161
18240,-0.8702,-0.3217,0.4438
18260,-0.845,-0.319,0.4258
18280,-0.8464,-0.3568,0.4371
18300,-0.8213,-0.165,0.3406
18320,-0.8778,-0.2286,0.3839
18340,-0.8901,-0.1641,0.2935
18360,-0.8717,-0.2562,0.3217
18380,-0.9312,-0.1548,0.3093
18400,-0.9922,-0.0874,0.2926
18420,-0.939,-0.2201,0.3057
18440,-0.9114,-0.3403,0.2578
18460,-0.9149,-0.28,0.2849
18480,-0.9171,-0.28,0.2212
18500,-0.9313,-0.3407,0.2546
18520,-0.9113,-0.3273,0.1674
18540,-0.9166,-0.3748,0.1696
18560,-0.8849,-0.3694,0.1174
18580,-0.8658,-0.4263,0.1469
18600,-0.9109,-0.4824,0.1383
18620,-0.8724,-0.5032,0.0786
18640,-0.9033,-0.4606,0.1139
18660,-0.9095,-0.4617,0.0609
18680,-0.8732,-0.5132,0.0315
18700,-0.9133,-0.4041,0.0717
18720,-0.9146,-0.3535,0.0513
18740,-0.92,-0.3425,0.0244
18760,-0.9454,-0.4749,0.1067
18780,-0.8733,-0.4807,0.1056
18800,-0.8829,-0.4128,0.1324
18820,-0.8679,-0.545,0.1349
18840,-0.853,-0.4784,0.2526
18860,-0.8291,-0.3762,0.2153
18880,-0.8237,-0.4465,0.3109
18900,-0.7688,-0.4875,0.3595
18920,-0.9049,-0.3123,0.4971
18940,-0.9692,-0.1969,0.5026
18960,-0.8744,-0.1885,0.3802
18980,-0.7579,-0.2671,0.3059
19000,-0.8275,-0.3517,0.3707
19020,-0.9178,-0.3096,0.4423
19040,-0.9054,-0.1517,0.3512
19060,-0.8848,-0.1097,0.3964
19080,-0.8809,-0.1888,0.4419
19100,-0.8855,-0.2799,0.4014
19120,-0.8253,-0.3031,0.3936
19140,-0.8374,-0.264,0.3951
19160,-0.8461,-0.2887,0.3867
19180,-0.8928,-0.2921,0.3981
19200,-0.8954,-0.3101,0.3882
19220,-0.8318,-0.3219,0.3964
19240,-0.8447,-0.3658,0.3719
19260,-0.8448,-0.4014,0.4187
19280,-0.855,-0.4292,0.3895
19300,-0.8674,-0.3998,0.3428
19320,-0.8717,-0.3834,0.3352
19340,-0.8237,-0.3914,0.2532
19360,-0.839,-0.4459,0.2534
19380,-0.877,-0.4592,0.2207
19400,-0.8536,-0.3926,0.229
19420,-0.8844,-0.3933,0.1593
19440,-0.9154,-0.3594,0.1366
19460,-0.9349,-0.4325,0.1216
19480,-0.9039,-0.4247,0.1309
19500,-0.9237,-0.4315,0.1262
19520,-0.9003,-0.4021,0.1459
19540,-0.912,-0.3993,0.1472
19560,-0.9229,-0.3712,0.1265
19580,-0.9431,-0.3129,0.1307
19600,-0.9655,-0.3121,0.1292
19620,-0.8931,-0.4282,0.1313
19640,-0.8768,-0.5002,0.1564
19660,-0.9032,-0.3977,0.1594
19680,-0.8761,-0.3992,0.1709
19700,-0.8708,-0.4633,0.2036
19720,-0.8652,-0.4628,0.1884
19740,-0.8665,-0.4454,0.2085
19760,-0.8831,-0.4042,0.1925
19780,-0.8462,-0.4347,0.2004
19800,-0.8468,-0.4645,0.2238
19820,-0.8582,-0.4697,0.2109
19840,-0.8583,-0.4586,0.2091
19860,-0.8529,-0.464,0.2197
19880,-0.8474,-0.4694,0.2125
19900,-0.8389,-0.5013,0.2135
19920,-0.8446,-0.4633,0.2174
19940,-0.8481,-0.4644,0.2205
19960,-0.8438,-0.4957,0.2178
19980,-0.8381,-0.5085,0.2167
20000,-0.845,-0.5022,0.2086
20020,-0.8324,-0.4913,0.2113
20040,-0.8379,-0.4865,0.2141
20060,-0.8346,-0.4829,0.2152
20080,-0.8347,-0.4963,0.2174
20100,-0.8361,-0.4995,0.2128
20120,-0.8306,-0.504,0.2047
20140,-0.8463,-0.493,0.2103
20160,-0.8398,-0.4875,0.1987
20180,-0.8407,-0.5208,0.2002
20200,-0.8378,-0.5083,0.197
20220,-0.8352,-0.507,0.1967
20240,-0.8297,-0.5012,0.1943
20260,-0.8303,-0.5171,0.1963
20280,-0.8325,-0.5094,0.1898
20300,-0.8406,-0.4956,0.1981
20320,-0.8524,-0.4736,0.1991
20340,-0.8673,-0.4606,0.2002
20360,-0.8682,-0.4888,0.1931
20380,-0.8159,-0.5114,0.1791
20400,-0.8412,-0.512,0.1848
20420,-0.8621,-0.4838,0.1934
20440,-0.8491,-0.4751,0.191
20460,-0.8467,-0.4924,0.1842
20480,-0.8501,-0.4916,0.1827
20500,-0.8522,-0.4818,0.1772
20520,-0.85,-0.4781,0.1715
20540,-0.8511,-0.495,0.1725
20560,-0.8409,-0.5006,0.1709
20580,-0.8473,-0.501,0.1696
20600,-0.8579,-0.4736,0.1786
20620,-0.8536,-0.4854,0.175
20640,-0.8467,-0.4945,0.1741
20660,-0.845,-0.4833,0.1731
20680,-0.8445,-0.4873,0.178
20700,-0.8574,-0.4915,0.1844
20720,-0.8516,-0.4932,0.1915
20740,-0.8551,-0.4763,0.1918
20760,-0.8579,-0.4617,0.1888
20780,-0.8484,-0.4834,0.1866
20800,-0.8467,-0.5005,0.1808
20820,-0.8481,-0.4823,0.1832
20840,-0.8546,-0.47,0.1858
20860,-0.8502,-0.485,0.1876
20880,-0.8483,-0.4844,0.1937
20900,-0.8514,-0.4968,0.1941
20920,-0.8483,-0.4883,0.1891
20940,-0.8446,-0.4889,0.1906
20960,-0.8467,-0.4951,0.189
20980,-0.8442,-0.4893,0.1892
21000,-0.8455,-0.4836,0.1923
21020,-0.8485,-0.4883,0.1901
21040,-0.8528,-0.4967,0.1868
21060,-0.8463,-0.4912,0.1919
21080,-0.8485,-0.4923,0.1915
21100,-0.8419,-0.5002,0.1863
21120,-0.8478,-0.4922,0.1813
21140,-0.8497,-0.4857,0.1831
21160,-0.8513,-0.4849,0.1859
21180,-0.8477,-0.4862,0.1869
21200,-0.8468,-0.4906,0.1855
21220,-0.8528,-0.4801,0.1871
21240,-0.849,-0.4901,0.1844
21260,-0.8497,-0.4902,0.1821
21280,-0.8472,-0.4845,0.1831
21300,-0.8593,-0.4723,0.186
21320,-0.856,-0.47,0.1875
21340,-0.8534,-0.4685,0.1875
21360,-0.8563,-0.4663,0.1879
21380,-0.8588,-0.4717,0.1886
21400,-0.8488,-0.4839,0.1893
21420,-0.8545,-0.4811,0.1884
21440,-0.8523,-0.4763,0.1826
21460,-0.8542,-0.478,0.1896
21480,-0.8572,-0.4828,0.1865
21500,-0.8602,-0.4689,0.1976
21520,-0.8635,-0.4534,0.1969
21540,-0.8641,-0.4553,0.2031
21560,-0.8657,-0.4535,0.2002
21580,-0.8522,-0.4646,0.1871
21600,-0.8502,-0.4701,0.1854
21620,-0.8574,-0.4707,0.1852
21640,-0.8606,-0.4677,0.1877
21660,-0.8584,-0.4749,0.1893
21680,-0.8569,-0.4708,0.1908
21700,-0.8563,-0.4753,0.1869
21720,-0.8395,-0.4963,0.1782
21740,-0.8425,-0.504,0.1812
21760,-0.848,-0.4818,0.1748
21780,-0.8566,-0.4724,0.1827
21800,-0.8447,-0.4871,0.1802
21820,-0.8573,-0.5055,0.1819
21840,-0.8486,-0.4854,0.1823
21860,-0.8485,-0.4857,0.1794
21880,-0.8508,-0.4922,0.1726
21900,-0.8469,-0.5005,0.1699
21920,-0.8481,-0.4902,0.1703
21940,-0.8506,-0.4941,0.1716
21960,-0.8481,-0.4971,0.1741
21980,-0.8479,-0.5006,0.1736
22000,-0.8451,-0.4912,0.1768
22020,-0.8448,-0.491,0.179
22040,-0.8511,-0.501,0.1737
22060,-0.8386,-0.5095,0.1608
22080,-0.8514,-0.498,0.16
22100,-0.8497,-0.4955,0.1616
22120,-0.8444,-0.4967,0.1682
22140,-0.8457,-0.4952,0.1656
22160,-0.8512,-0.5006,0.1703
22180,-0.8508,-0.4777,0.1715
22200,-0.8629,-0.4703,0.1669
22220,-0.8365,-0.5321,0.1438
22240,-0.8419,-0.5437,0.1304
22260,-0.8445,-0.5035,0.1514
22280,-0.8472,-0.481,0.1738
22300,-0.8519,-0.4921,0.1709
22320,-0.8464,-0.5031,0.1714
22340,-0.8494,-0.5007,0.1669
22360,-0.849,-0.5006,0.1649
22380,-0.85,-0.498,0.1716
22400,-0.8464,-0.4841,0.1719
22420,-0.8516,-0.4883,0.1759
22440,-0.845,-0.501,0.1721
22460,-0.8485,-0.5035,0.1677
22480,-0.8496,-0.4867,0.1768
22500,-0.8523,-0.4733,0.1827
22520,-0.8551,-0.486,0.1794
22540,-0.8499,-0.4818,0.1777
22560,-0.8478,-0.4849,0.1807
22580,-0.8574,-0.4885,0.1825
22600,-0.8513,-0.4744,0.1836
22620,-0.8525,-0.4836,0.1805
22640,-0.8545,-0.4707,0.1885
22660,-0.86,-0.4695,0.1857
22680,-0.8552,-0.4756,0.171
22700,-0.8545,-0.4907,0.1732
22720,-0.8528,-0.4827,0.178
22740,-0.8552,-0.4907,0.1792
22760,-0.8486,-0.4781,0.1803
22780,-0.8507,-0.4899,0.1793
22800,-0.8542,-0.4689,0.1847
22820,-0.8573,-0.4736,0.1838
22840,-0.8591,-0.4738,0.1782
22860,-0.8544,-0.4742,0.1776
22880,-0.8551,-0.4769,0.1772
22900,-0.8544,-0.4895,0.179
22920,-0.8558,-0.4792,0.1786
22940,-0.8516,-0.4927,0.1676
22960,-0.845,-0.493,0.1674
22980,-0.8435,-0.5006,0.1738
23000,-0.8448,-0.5073,0.1624
23020,-0.8486,-0.4978,0.1617
23040,-0.8513,-0.4893,0.1707
23060,-0.8607,-0.479,0.1793
23080,-0.8563,-0.4796,0.1741
23100,-0.8591,-0.4761,0.1692
23120,-0.8552,-0.4835,0.1646
23140,-0.8448,-0.5037,0.1653
23160,-0.8468,-0.5045,0.1611
23180,-0.8411,-0.4944,0.1677
23200,-0.8519,-0.4895,0.1724
23220,-0.8507,-0.5035,0.1691
23240,-0.8376,-0.4972,0.1653
23260,-0.8489,-0.5118,0.1689
23280,-0.8464,-0.4943,0.1683
23300,-0.845,-0.5011,0.1702
23320,-0.8445,-0.4998,0.17
23340,-0.848,-0.4895,0.1769
23360,-0.8446,-0.4771,0.1825
23380,-0.8519,-0.4888,0.1835
23400,-0.8466,-0.4948,0.179
23420,-0.8495,-0.4979,0.1699
23440,-0.8468,-0.4843,0.1729
23460,-0.8481,-0.506,0.1746
23480,-0.8475,-0.502,0.1738
23500,-0.8477,-0.49,0.177
23520,-0.8564,-0.4756,0.1742
23540,-0.8521,-0.49,0.1741
23560,-0.8488,-0.4911,0.1731
23580,-0.8513,-0.4968,0.1649
23600,-0.8511,-0.4849,0.1713
23620,-0.8506,-0.4951,0.1681
23640,-0.8542,-0.4963,0.1671
23660,-0.8524,-0.4872,0.1654
23680,-0.8536,-0.49,0.1683
23700,-0.854,-0.4843,0.1676
23720,-0.8534,-0.4897,0.1665
23740,-0.8536,-0.4896,0.167
23760,-0.855,-0.4834,0.1677
23780,-0.8533,-0.4846,0.1797
23800,-0.8506,-0.4937,0.174
23820,-0.8544,-0.4861,0.172
23840,-0.8561,-0.4695,0.1755
23860,-0.8527,-0.4807,0.1785
23880,-0.8524,-0.4833,0.1859
23900,-0.8517,-0.4891,0.1802
23920,-0.849,-0.4858,0.1721
23940,-0.8428,-0.5033,0.1779
23960,-0.8483,-0.5099,0.1816
23980,-0.8478,-0.4813,0.1821
24000,-0.8628,-0.46,0.1838
24020,-0.853,-0.4779,0.1824
24040,-0.8513,-0.4882,0.1787
24060,-0.8553,-0.4894,0.1799
24080,-0.8558,-0.4772,0.1814
24100,-0.8507,-0.4768,0.1902
24120,-0.8484,-0.4784,0.1862
24140,-0.8566,-0.4694,0.1857
24160,-0.8546,-0.4852,0.1826
24180,-0.8701,-0.4742,0.1873
24200,-0.8556,-0.4657,0.1802
24220,-0.8516,-0.4954,0.1857
24240,-0.8516,-0.4897,0.1775
24260,-0.848,-0.5043,0.1908
24280,-0.8462,-0.501,0.1879
24300,-0.8533,-0.4778,0.1995
24320,-0.8538,-0.4758,0.1957
24340,-0.8595,-0.4507,0.1956
24360,-0.8563,-0.4542,0.1971
24380,-0.8646,-0.459,0.201
24400,-0.8678,-0.4491,0.2046
24420,-0.8628,-0.4502,0.1785
24440,-0.8552,-0.4612,0.1801
24460,-0.8698,-0.4535,0.1802
24480,-0.8622,-0.442,0.189
24500,-0.8726,-0.4689,0.1904
24520,-0.8643,-0.4675,0.1825
24540,-0.8615,-0.469,0.1794
24560,-0.865,-0.4565,0.1821
24580,-0.8717,-0.4615,0.1836
24600,-0.8649,-0.4584,0.1798
24620,-0.863,-0.4576,0.1768
24640,-0.8723,-0.4513,0.1766
24660,-0.8607,-0.4619,0.1746
24680,-0.8666,-0.4656,0.1809
24700,-0.8661,-0.4624,0.1772
24720,-0.8688,-0.4564,0.1813
24740,-0.8641,-0.4651,0.1744
24760,-0.8627,-0.4653,0.1776
24780,-0.8597,-0.4669,0.1682
24800,-0.8645,-0.4692,0.1703
24820,-0.8567,-0.4724,0.157
24840,-0.8505,-0.4922,0.1624
24860,-0.8547,-0.4812,0.1606
24880,-0.858,-0.4822,0.1703
24900,-0.8556,-0.4829,0.1653
24920,-0.8523,-0.499,0.1833
24940,-0.8595,-0.4836,0.1859
24960,-0.86,-0.4717,0.189
24980,-0.8604,-0.4696,0.1907
25000,-0.8541,-0.4844,0.1877
25020,-0.8494,-0.4841,0.1831
25040,-0.8553,-0.4875,0.1851
25060,-0.8489,-0.4845,0.189
25080,-0.8379,-0.4895,0.1799
25100,-0.8533,-0.4768,0.179
25120,-0.8518,-0.4829,0.176
25140,-0.863,-0.4836,0.1802
25160,-0.8527,-0.486,0.1737
25180,-0.8563,-0.4811,0.1697
25200,-0.851,-0.4727,0.1669
25220,-0.8617,-0.4829,0.1687
25240,-0.8539,-0.4849,0.1624
25260,-0.855,-0.4937,0.1586
25280,-0.8505,-0.4972,0.1544
25300,-0.8505,-0.5009,0.1533
25320,-0.8527,-0.4978,0.1558
25340,-0.8514,-0.4916,0.1536
25360,-0.8529,-0.4952,0.1581
25380,-0.8541,-0.499,0.1528
25400,-0.8527,-0.5005,0.1497
25420,-0.8446,-0.4983,0.1499
25440,-0.8518,-0.4991,0.1545
25460,-0.854,-0.498,0.1552
25480,-0.8492,-0.4937,0.1531
25500,-0.8496,-0.5004,0.1503
25520,-0.8503,-0.495,0.16
25540,-0.8527,-0.4963,0.1604
25560,-0.8483,-0.5006,0.1542
25580,-0.8474,-0.4985,0.1587
25600,-0.8486,-0.4996,0.1572
25620,-0.8523,-0.494,0.1594
25640,-0.8456,-0.5005,0.1573
25660,-0.8457,-0.504,0.1569
25680,-0.8483,-0.5005,0.1617
25700,-0.8474,-0.5006,0.1603
25720,-0.8535,-0.495,0.1619
25740,-0.848,-0.5005,0.1654
25760,-0.8499,-0.4835,0.1646
25780,-0.8575,-0.489,0.1639
25800,-0.8495,-0.4886,0.1711
25820,-0.8506,-0.4916,0.1682
25840,-0.8556,-0.4778,0.1692
25860,-0.8546,-0.483,0.1698
25880,-0.8529,-0.4885,0.17
25900,-0.8492,-0.4911,0.1689
25920,-0.8501,-0.4879,0.1718
25940,-0.8551,-0.4857,0.173
25960,-0.8506,-0.476,0.1761
25980,-0.8629,-0.4824,0.1782
26000,-0.8546,-0.4781,0.1805
26020,-0.855,-0.4772,0.1809
26040,-0.8528,-0.4854,0.1772
26060,-0.8505,-0.4866,0.1749
26080,-0.8529,-0.4751,0.1776
26100,-0.8558,-0.4839,0.1752
26120,-0.8604,-0.4865,0.1844
26140,-0.8547,-0.4624,0.1857
26160,-0.8539,-0.4816,0.1881
26180,-0.8613,-0.4652,0.1812
26200,-0.8536,-0.4792,0.1819
26220,-0.8584,-0.4722,0.1774
26240,-0.8577,-0.4717,0.1766
26260,-0.8607,-0.4672,0.1807
26280,-0.8567,-0.4774,0.1742
26300,-0.8546,-0.4807,0.1781
26320,-0.858,-0.481,0.1735
26340,-0.86,-0.4668,0.1772
26360,-0.8605,-0.4791,0.1741
26380,-0.8567,-0.4829,0.1675
26400,-0.858,-0.4811,0.1663
26420,-0.8597,-0.4724,0.1671
26440,-0.8621,-0.4711,0.1708
26460,-0.8535,-0.4862,0.1687
26480,-0.8495,-0.4911,0.1625
26500,-0.8556,-0.4749,0.1631
26520,-0.8571,-0.4869,0.1659
26540,-0.86,-0.4855,0.1653
26560,-0.8571,-0.4773,0.1672
26580,-0.8545,-0.4777,0.1661
26600,-0.8579,-0.4883,0.1681
26620,-0.8558,-0.4851,0.1642
26640,-0.854,-0.4838,0.1646
26660,-0.8569,-0.4758,0.1692
26680,-0.8582,-0.4785,0.1692
26700,-0.8585,-0.4803,0.1655
26720,-0.8566,-0.4824,0.1675
26740,-0.8563,-0.4778,0.1716
26760,-0.8593,-0.4788,0.1719
26780,-0.8553,-0.4794,0.1678
26800,-0.8551,-0.4845,0.1731
26820,-0.8544,-0.4822,0.1753
26840,-0.8556,-0.4789,0.1764
26860,-0.8549,-0.4796,0.173
26880,-0.8535,-0.4851,0.1693
26900,-0.8549,-0.4845,0.1703
26920,-0.8589,-0.4796,0.1774
26940,-0.8621,-0.4857,0.1707
26960,-0.854,-0.4797,0.1747
26980,-0.8534,-0.4862,0.1713
27000,-0.8531,-0.4736,0.1737
27020,-0.8561,-0.4857,0.1721
27040,-0.8578,-0.4802,0.1724
27060,-0.8518,-0.4825,0.1699
27080,-0.8579,-0.4771,0.1738
27100,-0.86,-0.4803,0.1699
27120,-0.8577,-0.4828,0.1702
27140,-0.8562,-0.4777,0.1677
27160,-0.8518,-0.4711,0.1705
27180,-0.8472,-0.489,0.1725
27200,-0.8523,-0.4952,0.1704
27220,-0.8564,-0.481,0.1683
27240,-0.8541,-0.4867,0.1726
27260,-0.8549,-0.4877,0.1705
27280,-0.8549,-0.4893,0.1676
27300,-0.8518,-0.4823,0.1621
27320,-0.8579,-0.4839,0.168
27340,-0.8556,-0.4866,0.1654
27360,-0.8518,-0.4868,0.1652
27380,-0.8539,-0.4835,0.1676
27400,-0.851,-0.486,0.1669
27420,-0.8585,-0.4845,0.1678
27440,-0.8525,-0.4836,0.1656
27460,-0.8521,-0.4924,0.1621
27480,-0.8551,-0.4838,0.17
27500,-0.855,-0.484,0.1677
27520,-0.8535,-0.4899,0.1636
27540,-0.8514,-0.4946,0.1637
27560,-0.8481,-0.4878,0.1619
27580,-0.8575,-0.4902,0.1638
27600,-0.8508,-0.4917,0.1625
27620,-0.8529,-0.4901,0.1637
27640,-0.8557,-0.4852,0.1691
27660,-0.8539,-0.4882,0.1632
27680,-0.8489,-0.4973,0.1595
27700,-0.8514,-0.5001,0.1576
27720,-0.8555,-0.4832,0.1625
27740,-0.856,-0.4893,0.1627
27760,-0.8557,-0.4833,0.1606
27780,-0.8541,-0.4799,0.1674
27800,-0.8616,-0.4817,0.1746
27820,-0.8577,-0.4695,0.1708
27840,-0.8551,-0.4818,0.1682
27860,-0.858,-0.485,0.1675
27880,-0.8541,-0.4863,0.1663
27900,-0.8524,-0.4844,0.1665
27920,-0.8527,-0.4873,0.1648
27940,-0.8517,-0.4889,0.1682
27960,-0.8556,-0.4836,0.172
27980,-0.8551,-0.4755,0.1732
28000,-0.8501,-0.4941,0.1699
28020,-0.8523,-0.4985,0.1643
28040,-0.8478,-0.4948,0.1626
28060,-0.8518,-0.4878,0.1661
28080,-0.8566,-0.4966,0.1624
28100,-0.8436,-0.4927,0.1632
28120,-0.8517,-0.5007,0.1641
28140,-0.8527,-0.4888,0.1661
28160,-0.8519,-0.4866,0.1671
28180,-0.858,-0.4927,0.1619
28200,-0.851,-0.4913,0.1591
28220,-0.8513,-0.4854,0.1617
28240,-0.8601,-0.4863,0.1628
28260,-0.8492,-0.4891,0.1631
28280,-0.8524,-0.4937,0.16
28300,-0.8553,-0.4908,0.1642
28320,-0.8547,-0.489,0.1609
28340,-0.8484,-0.4963,0.1599
28360,-0.855,-0.498,0.1604
28380,-0.8544,-0.4862,0.1638
28400,-0.8533,-0.481,0.166
28420,-0.8546,-0.4926,0.1658
28440,-0.85,-0.4888,0.1669
28460,-0.8552,-0.4875,0.1694
28480,-0.8534,-0.4862,0.1696
28500,-0.8533,-0.4972,0.1741
28520,-0.8596,-0.4745,0.1699
28540,-0.8577,-0.4696,0.1714
28560,-0.8585,-0.4757,0.1705
28580,-0.8536,-0.4883,0.166
28600,-0.8555,-0.4769,0.172
28620,-0.8563,-0.4819,0.173
28640,-0.8567,-0.474,0.1782
28660,-0.8513,-0.484,0.1796
28680,-0.8564,-0.4893,0.1736
28700,-0.8514,-0.4799,0.1737
28720,-0.8545,-0.4871,0.1721
28740,-0.8561,-0.4861,0.1692
28760,-0.8502,-0.4865,0.1726
28780,-0.8552,-0.4777,0.1761
28800,-0.8572,-0.4668,0.182
28820,-0.8558,-0.4749,0.1779
28840,-0.8557,-0.4869,0.1744
28860,-0.8558,-0.474,0.1754
28880,-0.8573,-0.4731,0.181
28900,-0.8597,-0.4838,0.1759
28920,-0.8527,-0.4814,0.1768
28940,-0.8514,-0.4838,0.1746
28960,-0.854,-0.4813,0.1812
28980,-0.8525,-0.4711,0.1793
29000,-0.8571,-0.4761,0.1782
29020,-0.8567,-0.4724,0.1736
29040,-0.8595,-0.4707,0.178
29060,-0.8613,-0.4806,0.172
29080,-0.8522,-0.4843,0.1758
29100,-0.8545,-0.4882,0.1759
29120,-0.8589,-0.469,0.177
29140,-0.856,-0.4756,0.1815
29160,-0.8572,-0.4803,0.1798
29180,-0.8528,-0.4845,0.1754
29200,-0.8572,-0.4823,0.178
29220,-0.8582,-0.4698,0.1816
29240,-0.8621,-0.4812,0.1768
29260,-0.8572,-0.4707,0.172
29280,-0.8528,-0.4788,0.171
29300,-0.8585,-0.4764,0.1772
29320,-0.8586,-0.4729,0.1735
29340,-0.8573,-0.4796,0.1697
29360,-0.858,-0.4806,0.1727
29380,-0.8583,-0.4716,0.1766
29400,-0.8556,-0.4784,0.1759
29420,-0.8594,-0.4785,0.173
29440,-0.854,-0.4856,0.1713
29460,-0.8589,-0.4795,0.1755
29480,-0.859,-0.4784,0.1715
29500,-0.8561,-0.4771,0.1758
29520,-0.8578,-0.4805,0.1735
29540,-0.8557,-0.4772,0.1718
29560,-0.859,-0.4778,0.1721
29580,-0.8569,-0.4717,0.1761
29600,-0.8558,-0.4788,0.1758
29620,-0.8601,-0.4771,0.176
29640,-0.8575,-0.4706,0.1776
29660,-0.8544,-0.4772,0.1796
29680,-0.8579,-0.4692,0.1791
29700,-0.8635,-0.4707,0.1793
29720,-0.8562,-0.4725,0.1783
29740,-0.8545,-0.4819,0.1772
29760,-0.8551,-0.4816,0.1737
29780,-0.8525,-0.4854,0.1737
29800,-0.8546,-0.48,0.1793
29820,-0.8551,-0.4834,0.1769
29840,-0.8497,-0.4926,0.1718
29860,-0.853,-0.4784,0.1752
29880,-0.8582,-0.4764,0.1754
29900,-0.8629,-0.4644,0.1752
29920,-0.8612,-0.4709,0.1737
29940,-0.8545,-0.479,0.1752
29960,-0.8579,-0.4932,0.1714
29980,-0.8552,-0.4811,0.1714
30000,-0.8585,-0.4769,0.1698
30020,-0.8622,-0.4755,0.1682
30040,-0.8546,-0.4773,0.1708
30060,-0.8552,-0.4879,0.1707
30080,-0.8566,-0.4922,0.1654
30100,-0.8474,-0.5059,0.158
30120,-0.8507,-0.4869,0.1622
30140,-0.8536,-0.4777,0.1705
30160,-0.8566,-0.4745,0.17
30180,-0.8595,-0.489,0.1614
30200,-0.8567,-0.4863,0.1615
30220,-0.8494,-0.4891,0.157
30240,-0.8588,-0.4882,0.1604
30260,-0.8628,-0.4766,0.1606
30280,-0.8545,-0.4757,0.1686
30300,-0.8552,-0.4862,0.1715
30320,-0.8524,-0.4863,0.1647
30340,-0.8552,-0.4951,0.1635
30360,-0.8536,-0.4952,0.1587
30380,-0.8497,-0.4929,0.1606
30400,-0.8517,-0.49,0.1581
30420,-0.8528,-0.4976,0.1576
30440,-0.8516,-0.4932,0.1599
30460,-0.8586,-0.4785,0.1643
30480,-0.8564,-0.481,0.168
30500,-0.8541,-0.4911,0.1599
30520,-0.8542,-0.4937,0.1543
30540,-0.8527,-0.4865,0.1559
30560,-0.8544,-0.4888,0.1572
30580,-0.858,-0.491,0.1567
30600,-0.8539,-0.4901,0.1567
30620,-0.8488,-0.4941,0.1621
30640,-0.8572,-0.4957,0.1637
30660,-0.8519,-0.4893,0.1619
30680,-0.8506,-0.4973,0.1616
30700,-0.856,-0.4873,0.1616
30720,-0.8557,-0.4803,0.165
30740,-0.856,-0.4812,0.167
30760,-0.856,-0.4895,0.1667
30780,-0.8492,-0.4894,0.1636
30800,-0.8527,-0.4971,0.1616
30820,-0.8531,-0.4861,0.1665
30840,-0.8525,-0.4824,0.1674
30860,-0.858,-0.4824,0.165
30880,-0.8501,-0.4896,0.1648
30900,-0.8551,-0.4861,0.1644
30920,-0.8553,-0.4871,0.1654
30940,-0.8523,-0.49,0.1617
30960,-0.8534,-0.4956,0.1637
30980,-0.8555,-0.4904,0.168
31000,-0.8497,-0.4838,0.1649
31020,-0.8549,-0.5005,0.1636
31040,-0.8545,-0.4846,0.1641
31060,-0.8497,-0.4874,0.1638
31080,-0.854,-0.4883,0.1661
31100,-0.8527,-0.493,0.1635
31120,-0.8462,-0.4954,0.1606
31140,-0.8496,-0.4938,0.1586
31160,-0.8544,-0.4845,0.1622
31180,-0.8541,-0.4839,0.1649
31200,-0.8523,-0.4891,0.158
31220,-0.8546,-0.4948,0.1578
31240,-0.8488,-0.4823,0.1583
31260,-0.8588,-0.4911,0.1587
31280,-0.858,-0.4828,0.1616
31300,-0.8479,-0.4929,0.1638
31320,-0.8553,-0.494,0.1653
31340,-0.8508,-0.4911,0.1621
31360,-0.8521,-0.4938,0.1621
31380,-0.8522,-0.4945,0.1582
31400,-0.8518,-0.4879,0.16
31420,-0.8506,-0.4889,0.1602
31440,-0.8557,-0.4928,0.1616
31460,-0.8514,-0.4932,0.1593
31480,-0.8497,-0.4938,0.1558
31500,-0.8531,-0.4901,0.1605
31520,-0.8535,-0.4952,0.1572
31540,-0.8536,-0.4908,0.1539
31560,-0.8518,-0.4952,0.1542
31580,-0.851,-0.4901,0.1555
31600,-0.8575,-0.489,0.1566
31620,-0.8553,-0.4867,0.1522
31640,-0.8489,-0.4899,0.156
31660,-0.8612,-0.4812,0.1648
31680,-0.8567,-0.4761,0.1653
31700,-0.8541,-0.4955,0.1625
31720,-0.8497,-0.5006,0.1559
31740,-0.8505,-0.5013,0.1556
31760,-0.8514,-0.4918,0.1553
31780,-0.8601,-0.4899,0.1594
31800,-0.859,-0.4779,0.1573
31820,-0.8545,-0.4825,0.1559
31840,-0.8551,-0.481,0.1581
31860,-0.8556,-0.4926,0.1605
31880,-0.8528,-0.493,0.1556
31900,-0.8516,-0.49,0.1602
31920,-0.8561,-0.4811,0.1609
31940,-0.8562,-0.4828,0.1617
31960,-0.8521,-0.4857,0.1604
31980,-0.8538,-0.4927,0.1642
32000,-0.8549,-0.4882,0.1608
32020,-0.8556,-0.4839,0.167
32040,-0.8494,-0.5005,0.1674
32060,-0.8468,-0.4989,0.1678
32080,-0.8497,-0.4872,0.1682
32100,-0.8555,-0.4891,0.1709
32120,-0.8547,-0.4849,0.168
32140,-0.8511,-0.4941,0.1689
32160,-0.8473,-0.469,0.1683
32180,-0.8517,-0.4912,0.172
32200,-0.8529,-0.4884,0.1754
32220,-0.8502,-0.4905,0.1737
32240,-0.8531,-0.5007,0.1765
32260,-0.8519,-0.4967,0.1837
32280,-0.8569,-0.4749,0.188
32300,-0.8556,-0.4652,0.2048
32320,-0.8552,-0.4701,0.2023
32340,-0.832,-0.4832,0.1859
32360,-0.8134,-0.4502,0.1648
32380,-0.8752,-0.382,0.2388
32400,-0.9264,-0.4622,0.2517
32420,-0.8772,-0.4823,0.2162
32440,-0.8527,-0.4476,0.1874
32460,-0.8932,-0.4048,0.1895
32480,-0.9022,-0.4075,0.153
32500,-0.8668,-0.423,0.1273
32520,-0.8701,-0.4117,0.1394
32540,-0.9177,-0.3619,0.1437
32560,-0.9227,-0.3959,0.1079
32580,-0.9346,-0.3829,0.0747
32600,-0.9114,-0.3875,0.0837
32620,-0.9182,-0.3784,0.1068
32640,-0.9111,-0.4221,0.1211
32660,-0.9219,-0.42,0.1317
32680,-0.9078,-0.4014,0.1262
32700,-0.8997,-0.3943,0.1423
32720,-0.8945,-0.3759,0.1425
32740,-0.9332,-0.3459,0.1488
32760,-0.9225,-0.3396,0.1447
32780,-0.942,-0.3331,0.1295
32800,-0.9124,-0.3832,0.1191
32820,-0.8992,-0.3646,0.1217
32840,-0.9473,-0.3323,0.1208
32860,-0.9497,-0.3376,0.1018
32880,-0.9229,-0.3696,0.0908
32900,-0.8921,-0.4087,0.0844
32920,-0.8951,-0.3923,0.1063
32940,-0.926,-0.3729,0.0995
32960,-0.944,-0.3607,0.0769
32980,-0.9304,-0.3794,0.0654
33000,-0.8798,-0.4351,0.1104
33020,-0.9113,-0.403,0.1116
33040,-0.9192,-0.3864,0.1276
33060,-0.9285,-0.3617,0.11
33080,-0.9066,-0.4006,0.0856
33100,-0.9214,-0.4146,0.0712
33120,-0.9161,-0.4076,0.0972
33140,-0.9104,-0.3795,0.1189
33160,-0.8942,-0.4182,0.0865
33180,-0.8912,-0.4388,0.105
33200,-0.8633,-0.4802,0.1104
33220,-0.8773,-0.4506,0.1251
33240,-0.9169,-0.3837,0.1313
33260,-0.8927,-0.406,0.1289
33280,-0.8867,-0.4464,0.1429
33300,-0.8767,-0.4476,0.1421
33320,-0.8748,-0.4631,0.1371
33340,-0.8792,-0.4467,0.1449
33360,-0.8817,-0.4386,0.1566
33380,-0.8859,-0.439,0.1652
33400,-0.8593,-0.4672,0.1526
33420,-0.8639,-0.4717,0.1547
33440,-0.8665,-0.4769,0.1516
33460,-0.8698,-0.4415,0.1586
33480,-0.875,-0.453,0.1674
33500,-0.8707,-0.4447,0.1685
33520,-0.8679,-0.4608,0.1771
33540,-0.8585,-0.4563,0.1836
33560,-0.8636,-0.4575,0.192
33580,-0.8673,-0.4199,0.1929
33600,-0.8805,-0.4114,0.2014
33620,-0.877,-0.4368,0.1963
33640,-0.8713,-0.4552,0.189
33660,-0.8685,-0.4583,0.1823
33680,-0.8701,-0.4442,0.1934
33700,-0.8684,-0.4491,0.1802
33720,-0.8608,-0.478,0.1852
33740,-0.8588,-0.4663,0.1713
33760,-0.8732,-0.4637,0.178
33780,-0.8663,-0.4541,0.1638
33800,-0.8613,-0.4625,0.168
33820,-0.8652,-0.4453,0.171
33840,-0.8762,-0.4503,0.1742
33860,-0.8701,-0.4584,0.1722
33880,-0.8658,-0.4561,0.1743
33900,-0.874,-0.4529,0.1743
33920,-0.8695,-0.4608,0.176
33940,-0.8724,-0.4537,0.1772
33960,-0.8744,-0.454,0.1775
33980,-0.8711,-0.4507,0.1804
34000,-0.8715,-0.439,0.179
34020,-0.8687,-0.4563,0.171
34040,-0.8712,-0.453,0.1759
34060,-0.8706,-0.4476,0.1809
34080,-0.8694,-0.4473,0.1752
34100,-0.8671,-0.4462,0.1837
34120,-0.8666,-0.458,0.182
34140,-0.8674,-0.4553,0.1843
34160,-0.8679,-0.4515,0.1809
34180,-0.8665,-0.4545,0.1801
34200,-0.8671,-0.4615,0.1827
34220,-0.8672,-0.4602,0.1749
34240,-0.8632,-0.4724,0.1698
34260,-0.8656,-0.455,0.1747
34280,-0.868,-0.4474,0.1759
34300,-0.8625,-0.4648,0.1771
34320,-0.8691,-0.4636,0.1654
34340,-0.8674,-0.4519,0.1708
34360,-0.8779,-0.4653,0.1658
34380,-0.8605,-0.4678,0.156
34400,-0.8706,-0.4708,0.1569
34420,-0.8651,-0.4633,0.1614
34440,-0.8713,-0.4653,0.162
34460,-0.8694,-0.4579,0.1656
34480,-0.8685,-0.4696,0.1667
34500,-0.8689,-0.4607,0.1644
34520,-0.87,-0.4559,0.1628
34540,-0.8651,-0.4661,0.161
34560,-0.8718,-0.4647,0.1632
34580,-0.8711,-0.4579,0.16
34600,-0.87,-0.459,0.1603
34620,-0.8646,-0.4784,0.1687
34640,-0.8704,-0.455,0.1619
34660,-0.8712,-0.4648,0.163
34680,-0.8701,-0.4515,0.1538
34700,-0.8679,-0.4653,0.1569
34720,-0.8694,-0.4597,0.1582
34740,-0.8721,-0.4642,0.162
34760,-0.8716,-0.4512,0.1633
34780,-0.8752,-0.4443,0.1631
34800,-0.87,-0.4482,0.1635
34820,-0.8677,-0.4619,0.1699
34840,-0.8705,-0.4553,0.168
34860,-0.8717,-0.4515,0.1683
34880,-0.871,-0.4535,0.1653
34900,-0.8712,-0.4514,0.1707
34920,-0.8707,-0.4524,0.1707
34940,-0.8685,-0.458,0.1718
34960,-0.8711,-0.4584,0.1663
34980,-0.8682,-0.4572,0.1718
35000,-0.8724,-0.4563,0.1735
35020,-0.8722,-0.4542,0.1714
35040,-0.8716,-0.45,0.1743
35060,-0.8745,-0.4501,0.1744
35080,-0.8787,-0.4421,0.1741
35100,-0.8734,-0.4518,0.1666
35120,-0.8696,-0.4421,0.1586
35140,-0.8696,-0.4476,0.168
35160,-0.8665,-0.4457,0.1643
35180,-0.847,-0.4839,0.1665
35200,-0.8414,-0.5004,0.1588
35220,-0.8478,-0.5175,0.1648
35240,-0.8708,-0.4906,0.1715
35260,-0.9037,-0.4393,0.1914
35280,-0.8832,-0.4149,0.1836
35300,-0.8683,-0.4717,0.1691
35320,-0.856,-0.49,0.1644
35340,-0.8567,-0.46,0.1709
35360,-0.8564,-0.4537,0.1731
35380,-0.8618,-0.4652,0.1788
35400,-0.8521,-0.4764,0.1796
35420,-0.8601,-0.4773,0.1786
35440,-0.8627,-0.468,0.178
35460,-0.864,-0.4619,0.1813
35480,-0.8672,-0.4583,0.1853
35500,-0.8712,-0.4474,0.1813
35520,-0.8716,-0.4468,0.1802
35540,-0.8715,-0.4513,0.1769
35560,-0.8667,-0.4436,0.1779
35580,-0.8651,-0.4495,0.1765
35600,-0.8668,-0.4679,0.1744
35620,-0.8645,-0.4591,0.1729
35640,-0.8719,-0.4646,0.172
35660,-0.8673,-0.4448,0.1715
35680,-0.8718,-0.4642,0.1703
35700,-0.8661,-0.4617,0.1683
35720,-0.8656,-0.4658,0.1635
35740,-0.8644,-0.4648,0.1626
35760,-0.8676,-0.463,0.1661
35780,-0.8663,-0.4644,0.158
35800,-0.8668,-0.4724,0.1615
35820,-0.8705,-0.4543,0.1575
35840,-0.868,-0.4667,0.1566
35860,-0.8689,-0.4734,0.1571
35880,-0.8663,-0.473,0.1456
35900,-0.8693,-0.4716,0.1484
35920,-0.8716,-0.4678,0.149
35940,-0.8645,-0.464,0.1436
35960,-0.8613,-0.485,0.1425
35980,-0.8522,-0.4845,0.1473
36000,-0.8665,-0.4771,0.1541
36020,-0.8696,-0.47,0.1537
36040,-0.8544,-0.4856,0.1483
36060,-0.8588,-0.4908,0.1469
36080,-0.8611,-0.4838,0.149
36100,-0.8634,-0.467,0.1511
36120,-0.8677,-0.4766,0.1498
36140,-0.8623,-0.4783,0.1544
36160,-0.8604,-0.4829,0.1559
36180,-0.8635,-0.4772,0.1577
36200,-0.8628,-0.4821,0.157
36220,-0.8634,-0.4795,0.1539
36240,-0.8611,-0.4728,0.1519
36260,-0.866,-0.4729,0.1542
36280,-0.8636,-0.4707,0.1559
36300,-0.864,-0.4774,0.1589
36320,-0.8638,-0.4594,0.1582
36340,-0.8677,-0.4664,0.1608
36360,-0.8595,-0.4742,0.1613
36380,-0.856,-0.4771,0.1636
36400,-0.8571,-0.4899,0.1633
36420,-0.8618,-0.4681,0.1722
36440,-0.8629,-0.4521,0.1665
36460,-0.8623,-0.4681,0.1724
36480,-0.8567,-0.4777,0.168
36500,-0.8746,-0.4736,0.1757
36520,-0.8684,-0.4501,0.1696
36540,-0.8717,-0.4574,0.1724
36560,-0.8618,-0.4678,0.1647
36580,-0.8644,-0.4685,0.158
36600,-0.8625,-0.4661,0.1604
36620,-0.868,-0.4762,0.1652
36640,-0.8657,-0.4758,0.1564
36660,-0.8646,-0.473,0.1514
36680,-0.8656,-0.4712,0.1547
36700,-0.869,-0.4655,0.158
36720,-0.8611,-0.465,0.1509
36740,-0.8688,-0.4583,0.1571
36760,-0.8511,-0.4756,0.1411
36780,-0.8613,-0.4839,0.1542
36800,-0.8705,-0.4548,0.1573
36820,-0.8721,-0.4498,0.1566
36840,-0.8663,-0.4801,0.1543
36860,-0.8751,-0.458,0.146
36880,-0.8737,-0.4766,0.1506
36900,-0.8624,-0.472,0.1443
36920,-0.8712,-0.4397,0.1406
36940,-0.87,-0.4435,0.1514
36960,-0.8395,-0.4507,0.1584
36980,-0.8304,-0.4335,0.189
37000,-0.7947,-0.4965,0.1825
37020,-0.8483,-0.4967,0.2036
37040,-0.8949,-0.4202,0.2927
37060,-0.9642,-0.2698,0.2825
37080,-1.0155,-0.2368,0.3448
37100,-0.974,-0.2827,0.3013
37120,-0.9313,-0.2802,0.2609
37140,-0.8615,-0.3124,0.2501
37160,-0.8301,-0.3776,0.2219
37180,-0.8529,-0.3694,0.2618
37200,-0.9395,-0.1964,0.2555
37220,-0.951,-0.225,0.2539
37240,-0.9614,-0.2927,0.2546
37260,-0.8838,-0.3351,0.2632
37280,-0.9221,-0.2938,0.2654
37300,-0.9208,-0.2057,0.2803
37320,-0.8872,-0.2627,0.2996
37340,-0.8918,-0.286,0.2441
37360,-0.9147,-0.2717,0.2692
37380,-0.9265,-0.2528,0.2784
37400,-0.9156,-0.2559,0.3059
37420,-0.8414,-0.3654,0.3705
37440,-0.9287,-0.5668,0.2908
37460,-1.0076,-0.5012,0.2732
37480,-0.907,-0.2903,0.2585
37500,-0.8582,-0.1926,0.3529
37520,-0.8213,-0.2534,0.1364
37540,-0.9495,-0.4008,0.1674
37560,-0.8583,-0.4648,0.1802
37580,-0.8187,-0.4399,0.1309
37600,-0.9292,-0.3795,0.1714
37620,-0.9528,-0.281,0.1367
37640,-0.9218,-0.3558,0.1471
37660,-0.88,-0.3523,0.1211
37680,-0.9484,-0.3583,0.1213
37700,-0.9401,-0.3309,0.1475
37720,-0.9493,-0.3632,0.118
37740,-0.8666,-0.4,0.1165
37760,-0.932,-0.3563,0.1171
37780,-0.9365,-0.3215,0.142
37800,-0.9625,-0.2899,0.1575
37820,-0.9277,-0.3647,0.1281
37840,-0.9055,-0.4357,0.1167
37860,-0.8733,-0.454,0.1185
37880,-0.9077,-0.3663,0.1434
37900,-0.9259,-0.384,0.1143
37920,-0.9032,-0.4073,0.1337
37940,-0.8906,-0.4053,0.1244
37960,-0.9147,-0.3817,0.1251
37980,-0.9177,-0.3868,0.1259
38000,-0.8939,-0.4163,0.1259
38020,-0.895,-0.4287,0.1268
38040,-0.8979,-0.4374,0.1315
38060,-0.8956,-0.425,0.1205
38080,-0.8887,-0.4363,0.1277
38100,-0.876,-0.4427,0.1143
38120,-0.8788,-0.4388,0.1456
38140,-0.8966,-0.4263,0.1461
38160,-0.8857,-0.4148,0.1305
38180,-0.8623,-0.4585,0.1395
38200,-0.8546,-0.5015,0.1329
38220,-0.8431,-0.5072,0.1152
38240,-0.8444,-0.5348,0.1224
38260,-0.8724,-0.5128,0.1261
38280,-0.8971,-0.4738,0.1392
38300,-0.8755,-0.4578,0.145
38320,-0.8475,-0.493,0.1393
38340,-0.8439,-0.5057,0.1255
38360,-0.8398,-0.5129,0.1272
38380,-0.8372,-0.5145,0.1355
38400,-0.8353,-0.5254,0.15
38420,-0.8436,-0.4934,0.1583
38440,-0.8516,-0.4556,0.1614
38460,-0.834,-0.4891,0.1569
38480,-0.8286,-0.5127,0.1604
38500,-0.8213,-0.5258,0.146
38520,-0.8336,-0.5253,0.1301
38540,-0.8784,-0.5396,0.1248
38560,-0.8815,-0.5493,0.144
38580,-0.8213,-0.5599,0.1449
38600,-0.791,-0.5198,0.1288
38620,-0.8154,-0.5529,0.1315
38640,-0.8479,-0.5392,0.13
38660,-0.8405,-0.5371,0.1321
38680,-0.8219,-0.5475,0.1381
38700,-0.8168,-0.533,0.1414
38720,-0.8275,-0.5353,0.1378
38740,-0.8276,-0.5365,0.1372
38760,-0.8239,-0.5494,0.1354
38780,-0.8197,-0.5507,0.1345
38800,-0.8245,-0.5454,0.1348
38820,-0.8204,-0.5405,0.1361
38840,-0.8315,-0.5383,0.1416
38860,-0.8278,-0.5419,0.1465
38880,-0.8331,-0.5297,0.1472
38900,-0.8181,-0.5461,0.1473
38920,-0.83,-0.5366,0.15
38940,-0.8252,-0.5278,0.1467
38960,-0.8298,-0.5396,0.1506
38980,-0.8287,-0.5312,0.1486
39000,-0.8243,-0.5259,0.1514
39020,-0.8274,-0.5284,0.1484
39040,-0.8331,-0.5201,0.1534
39060,-0.8389,-0.5226,0.125
39080,-0.8298,-0.5139,0.1515
39100,-0.8342,-0.5175,0.1528
39120,-0.8333,-0.5251,0.1499
39140,-0.8326,-0.5256,0.1455
39160,-0.8345,-0.5242,0.1428
39180,-0.839,-0.5177,0.1499
39200,-0.8387,-0.517,0.1445
39220,-0.8335,-0.5225,0.1344
39240,-0.8325,-0.5315,0.1342
39260,-0.8385,-0.5223,0.1395
39280,-0.8375,-0.5198,0.1354
39300,-0.8412,-0.5276,0.1364
39320,-0.8402,-0.5214,0.1301
39340,-0.8342,-0.5256,0.1285
39360,-0.8351,-0.5251,0.1288
39380,-0.8416,-0.5228,0.1277
39400,-0.8351,-0.5203,0.1246
39420,-0.8362,-0.5311,0.1218
39440,-0.8395,-0.5363,0.126
39460,-0.8276,-0.5332,0.1233
39480,-0.832,-0.5386,0.124
39500,-0.8322,-0.5383,0.124
39520,-0.8317,-0.5381,0.1241
39540,-0.8275,-0.5369,0.1244
39560,-0.8318,-0.5352,0.1281
39580,-0.8354,-0.5364,0.1256
39600,-0.8251,-0.5396,0.1217
39620,-0.8282,-0.5325,0.1302
39640,-0.8324,-0.5283,0.131
39660,-0.8315,-0.5358,0.1282
39680,-0.8292,-0.5387,0.1221
39700,-0.8262,-0.535,0.1229
39720,-0.8298,-0.538,0.1232
39740,-0.8342,-0.5365,0.1234
39760,-0.8284,-0.5334,0.121
39780,-0.8347,-0.5425,0.1141
39800,-0.8253,-0.5411,0.1152
39820,-0.8275,-0.5387,0.1194
39840,-0.83,-0.5514,0.1176
39860,-0.8293,-0.5474,0.1111
39880,-0.8208,-0.5518,0.1024
39900,-0.8156,-0.5609,0.1018
39920,-0.8275,-0.5496,0.1172
39940,-0.8313,-0.5396,0.1191
39960,-0.8271,-0.5485,0.1123
39980,-0.8185,-0.5571,0.1129
40000,-0.8217,-0.5431,0.1091
40020,-0.822,-0.5524,0.1055
40040,-0.8276,-0.545,0.1034
40060,-0.829,-0.5527,0.1013
40080,-0.8248,-0.5496,0.1001
40100,-0.8207,-0.5475,0.1012
40120,-0.8278,-0.5526,0.1045
40140,-0.8228,-0.5549,0.1058
40160,-0.8254,-0.558,0.1017
40180,-0.8235,-0.552,0.1003
40200,-0.8134,-0.5599,0.099
40220,-0.8246,-0.5581,0.1021
40240,-0.8258,-0.5552,0.1001
40260,-0.8167,-0.5551,0.0989
40280,-0.8214,-0.5538,0.0983
40300,-0.8273,-0.5542,0.0895
40320,-0.8268,-0.5565,0.0892
40340,-0.8247,-0.5627,0.0962
40360,-0.839,-0.5361,0.0925
40380,-0.844,-0.5239,0.103
40400,-0.8352,-0.5399,0.1012
40420,-0.8408,-0.551,0.1052
40440,-0.8267,-0.5371,0.0919
40460,-0.8352,-0.5464,0.0994
40480,-0.8429,-0.5535,0.1049
40500,-0.8428,-0.5458,0.118
40520,-0.8478,-0.5154,0.1266
40540,-0.8479,-0.4882,0.1534
40560,-0.8585,-0.4664,0.1501
40580,-0.8702,-0.4277,0.156
40600,-0.8673,-0.4237,0.1453
40620,-0.863,-0.4358,0.1523
40640,-0.8737,-0.4617,0.1686
40660,-0.8597,-0.4438,0.1543
40680,-0.8845,-0.4662,0.1503
40700,-0.8514,-0.4802,0.1254
40720,-0.9104,-0.3114,0.1368
40740,-0.8579,-0.4619,0.1487
40760,-0.901,-0.4438,0.1692
40780,-0.892,-0.5459,0.1587
40800,-0.9297,-0.4778,0.1531
40820,-0.921,-0.328,0.1373
40840,-0.9594,-0.3137,0.1547
40860,-0.9037,-0.3623,0.1168
40880,-0.9377,-0.3485,0.1241
40900,-0.9342,-0.3217,0.0946
40920,-0.8931,-0.4554,0.1371
40940,-0.9225,-0.4283,0.1267
40960,-0.8997,-0.4225,0.1373
40980,-0.8878,-0.4058,0.1024
41000,-0.8939,-0.3997,0.0995
41020,-0.9028,-0.4094,0.1066
41040,0.1426,0.8665,-0.3751
41060,-1.3958,-0.9716,0.3149
41080,-1.0394,-1.9211,-0.4608
41100,-1.6143,-0.4208,0.3514
41120,-0.8654,-0.2579,0.078
41140,0.1763,-0.2533,-0.1384
41160,0.5962,-0.2245,-0.4779
41180,-1.7067,-0.4775,2.828
41200,-1.5112,0.1833,0.6672
41220,-1.1434,0.0465,0.3187
41240,-0.9574,-0.5414,0.1648
41260,-0.8876,-0.3851,0.7571
41280,-0.1528,-0.5146,0.2554
41300,0.6735,0.114,-1.0996
41320,-1.2731,-0.2815,0.2706
41340,-1.9734,-3.9995,-0.4874
41360,-2.0265,-0.0618,0.4824
41380,-0.9243,-0.1608,0.1305
41400,0.4441,0.0398,-0.1575
41420,0.7532,-0.1949,-0.6646
41440,-1.0175,1.5833,2.8682
41460,-0.4363,-0.0071,1.0906
41480,-1.1544,-0.3788,-0.2529
41500,-1.1686,-0.6907,0.9706
41520,-1.0692,-0.0851,0.8624
41540,0.1384,-0.4534,0.2816
41560,0.453,-0.3923,-0.5845
41580,-1.1599,-0.002,0.6556
41600,-2.9343,-3.9995,0.2101
41620,-1.6473,-0.299,0.2687
41640,-1.1625,-0.2031,0.2369
41660,0.432,0.1102,-0.2632
41680,0.8502,-0.0646,-0.3094
41700,-0.1531,-1.1851,0.6433
41720,-0.3378,-0.3842,0.2507
41740,-1.4675,0.1215,-0.5464
41760,-0.9324,-0.4894,0.3259
41780,-1.2699,-0.5377,0.4148
41800,0.0826,-0.6534,0.3851
41820,0.2269,0.3929,-0.1698
41840,-0.5875,0.1858,0.4065
41860,-3.9874,-3.9995,0.4447
41880,-1.5038,-0.5264,0.2987
41900,-1.1473,-0.1465,0.3604
41920,0.0934,0.1207,-0.012
41940,0.7377,0.0845,-0.7297
41960,-0.3743,-1.2141,0.4729
41980,0.0515,-1.0896,0.9083
42000,-1.8888,-0.1338,-0.2026
42020,-1.3601,-0.1335,0.3448
42040,-1.0396,-0.2754,0.3442
42060,-0.1731,-0.8909,0.4487
42080,0.1655,0.5088,-0.2211
42100,-0.4514,0.5804,0.2202
42120,-3.6626,-3.9995,-0.0679
42140,-1.8619,-0.4124,0.6938
42160,-1.3998,-0.1559,0.2235
42180,0.0867,-0.0397,-0.1276
42200,0.5972,-0.2167,-0.6423
42220,-0.8313,0.0833,-0.1
42240,-3.3118,-3.9812,0.8273
42260,-1.5405,0.0919,-0.1388
42280,-0.8778,-0.2625,0.4186
42300,-1.4498,-0.2283,0.4121
42320,-0.6567,-0.381,0.7144
42340,0.1161,-0.0339,-0.0898
42360,-0.1818,0.4038,-0.3436
42380,-1.6588,-1.1077,0.787
42400,-1.6953,-0.5555,1.4517
42420,-1.6323,-0.3116,0.3367
42440,-0.6233,-0.2377,-0.1626
42460,0.2632,-0.0042,0.0143
42480,0.3354,0.2325,0.038
42500,-1.7493,-1.8232,0.5516
42520,-1.8966,-0.4117,0.8208
42540,-1.1936,0.0463,0.6395
42560,-1.1237,-0.204,0.0634
42580,-0.5817,-0.4923,0.8567
42600,-0.4487,-0.5172,0.2119
42620,0.2297,0.8621,-0.1957
42640,-0.1433,0.0339,0.0116
42660,-2.8059,-3.7893,-0.1912
42680,-2.1177,0.2389,0.1039
42700,-1.4885,0.0181,0.2028
42720,0.2291,-0.0059,-0.0604
42740,0.5697,-0.1519,-0.6334
42760,0.0267,-0.0463,-0.0542
42780,-0.9188,-1.0507,1.2358
42800,-1.5303,0.1554,-0.2592
42820,-0.7179,-0.292,0.4064
42840,-0.7305,-1.036,0.498
42860,-0.9004,-0.7072,0.6929
42880,0.1354,0.3596,-0.2988
42900,-0.4628,0.4307,0.1647
42920,-1.5215,-1.7015,0.104
42940,-1.9452,0.0074,0.9857
42960,-1.6295,0.0416,0.3771
42980,-0.3611,0.1256,0.1825
43000,0.0793,-0.0085,-0.2504
43020,-0.0443,0.1425,0.066
43040,-1.0004,-3.5946,-0.397
43060,-1.6868,0.001,0.3018
43080,-0.7014,-0.2125,0.054
43100,-1.0848,-0.5596,0.2268
43120,-0.9609,-0.5359,0.9946
43140,-0.1753,-0.5132,-0.1847
43160,-0.2202,0.5135,-0.4519
43180,-1.3873,-0.3188,0.6449
43200,-1.3198,-1.6772,0.6844
43220,-1.704,-0.4504,0.4756
43240,-0.9888,-0.1077,0.1912
43260,0.3926,-0.1202,-0.0406
43280,0.1564,0.0237,-0.517
43300,-0.093,-1.0519,1.108
43320,0.0282,-1.3372,0.6715
43340,-1.2555,-0.0574,-0.0355
43360,-1.0795,-0.587,0.3832
43380,-1.3643,0.1199,0.2208
43400,-0.8716,-0.3358,0.4846
43420,0.0771,-0.0446,-0.0961
43440,-0.5072,0.5024,-0.1053
43460,-1.5138,-2.2437,0.3326
43480,-2.0248,-0.4473,1.1128
43500,-1.2799,-0.1876,0.3381
43520,-0.1866,0.0537,-0.038
43540,0.4319,0.0913,-0.325
43560,-0.2275,-0.8793,0.5157
43580,-0.6323,-1.2072,0.1952
43600,-1.545,-0.3206,-0.2181
43620,-0.7642,-0.1666,0.0908
43640,-1.4362,-0.2761,0.4557
43660,-0.9166,-0.5745,0.8063
43680,-0.2405,0.3651,-0.0125
43700,-0.4962,0.677,-0.4957
43720,-1.6207,-1.3788,-0.0353
43740,-0.7057,-1.0354,0.8519
43760,-1.6915,-0.2393,0.4005
43780,-0.6637,0.0042,0.2224
43800,0.3069,-0.1852,-0.3286
43820,0.2755,-0.1802,0.3889
43840,-1.297,-3.5245,-0.855
43860,-1.1039,-0.0386,0.1021
43880,-0.9346,-0.057,0.0209
43900,-1.3929,-0.4702,0.2715
43920,-1.4049,-0.6234,0.7969
43940,0.0007,-0.7415,-0.2205
43960,0.1553,0.1233,-0.2472
43980,-0.7754,0.3152,0.3032
44000,-1.9398,-2.3373,-0.3207
44020,-1.9661,-0.0948,0.729
44040,-1.355,-0.5372,0.4253
44060,-0.1923,-0.3287,-0.0491
44080,0.6694,0.0291,-0.0924
44100,0.0062,-0.2593,0.1907
44120,-3.2806,-3.1873,0.6067
44140,-1.2961,-0.5775,-0.1832
44160,-0.828,-0.2451,0.3037
44180,-1.3132,0.0074,0.5549
44200,-1.1377,-0.6721,0.64
44220,-0.3384,-0.5017,-0.0466
44240,-0.115,0.3102,-0.3765
44260,-1.6583,-0.3856,0.7117
44280,-0.9581,-2.3853,-0.0842
44300,-1.6802,-0.3574,0.3147
44320,-0.9728,-0.2307,0.2201
44340,0.7399,-0.0536,-0.3029
44360,0.6694,-0.0092,-0.3156
44380,-0.837,-1.4229,1.3429
44400,0.2559,-0.9326,0.0975
44420,-1.0408,-0.0356,-0.3877
44440,-1.4915,-0.6969,0.2251
44460,-1.1364,0.0421,0.1069
44480,-0.7932,-0.3177,0.3711
44500,0.0469,0.1637,-0.0604
44520,-0.2643,0.5212,-0.2045
44540,-2.0699,-1.9565,-0.1213
44560,-1.9828,-0.6447,1.3029
44580,-1.2728,-0.4221,0.2501
44600,-0.2933,-0.5292,0.1827
44620,0.4355,-0.1295,-0.3007
44640,-0.0613,-0.3618,0.2173
44660,-1.0132,-1.589,1.834
44680,-1.4724,-0.374,-0.019
44700,-0.8778,-0.0809,0.3453
44720,-1.5621,-0.6129,0.2925
44740,-1.0951,-0.3765,0.385
44760,-0.6993,-0.625,0.3218
44780,0.0986,0.3239,-0.0295
44800,-0.4652,0.4733,-0.0176
44820,-1.8497,-2.1429,-0.2175
44840,-1.5032,-0.3878,1.0034
44860,-1.3064,-0.3988,0.3728
44880,-0.5499,-0.0912,0.1475
44900,0.2002,-0.2471,-0.4841
44920,0.1185,-0.131,-0.0007
44940,-1.5239,-2.8868,-2.0205
44960,-1.4948,-0.2682,0.2194
44980,-0.7172,-0.3501,0.2922
45000,-1.5647,-0.5714,0.2924
45020,-1.0447,-0.4218,0.4344
45040,-0.4851,-0.1985,0.4419
45060,0.012,0.2018,-0.1271
45080,-0.8553,-0.0819,0.2513
45100,-1.5422,-3.9995,0.3562
45120,-1.5076,-0.5116,1.0155
45140,-1.5199,-0.3259,0.4822
45160,-0.3514,0.0291,0.1982
45180,0.458,0.2786,-0.3431
45200,0.1411,-0.1998,0.1284
45220,-1.9127,-3.6652,-1.1392
45240,-1.3892,-0.6343,0.145
45260,-0.8665,-0.2758,0.2067
45280,-1.4705,-0.4977,0.3309
45300,-1.0559,-0.5259,0.606
45320,-0.4467,-0.0981,0.3562
45340,-0.0682,0.2476,-0.094
45360,-0.5283,0.4137,0.4479
45380,-1.9398,-2.391,-0.1063
45400,-1.6089,-0.4999,0.9047
45420,-1.3625,-0.3955,0.3826
45440,-0.4181,-0.0969,0.1077
45460,0.6578,-0.1357,-0.3707
45480,0.0674,-0.0936,0.2377
45500,-1.0706,-3.0182,-1.7413
45520,-1.212,-0.1909,0.3745
45540,-0.8407,-0.5944,0.4166
45560,-1.49,-0.7336,0.2733
45580,-0.9396,-0.4368,0.5258
45600,-0.6769,-0.6405,0.1898
45620,-0.0078,0.2642,-0.2098
45640,-0.4534,0.3577,-0.2998
45660,-1.7231,-0.6943,0.7076
45680,-1.2891,-0.8389,1.0132
45700,-1.5358,-0.653,0.5493
45720,-1.1307,-0.1326,0.1268
45740,0.2228,0.0378,-0.1256
45760,0.1019,0.0096,-0.2362
45780,0.1044,-0.7603,0.0116
45800,-0.0278,-0.6337,0.2159
45820,-1.725,0.1471,-0.1322
45840,-1.1486,-0.4252,0.2604
45860,-1.3767,-0.1506,0.3185
45880,-1.3081,-0.8676,0.4917
45900,-0.1058,-0.2502,-0.079
45920,-0.2638,0.6531,-0.3434
45940,-1.7469,-0.995,0.0408
45960,-0.7858,-1.6925,-0.0576
45980,-1.605,-0.3938,0.2437
46000,-0.728,-0.4412,0.1067
46020,0.6161,-0.0259,-0.2166
46040,0.0884,0.0656,-0.1111
46060,-1.6736,-2.3068,0.1509
46080,-1.0405,-0.9337,0.4215
46100,-1.1707,-0.2175,0.1333
46120,-1.3497,-0.7174,0.134
46140,-1.1519,-0.524,0.0458
46160,-0.2574,-0.5568,0.2014
46180,-0.0812,0.4204,-0.2532
46200,-1.3463,0.256,0.5371
46220,-1.6035,-3.3878,-0.2534
46240,-1.957,-0.3278,0.7286
46260,-1.2253,-0.2942,0.3594
46280,0.1057,-0.1586,-0.1136
46300,0.5752,0.0565,-0.4163
46320,-0.7244,-0.0891,0.2292
46340,-2.9882,-3.6166,0.8162
46360,-1.6721,-0.074,0.059
46380,-0.9144,-0.8691,0.4218
46400,-1.4349,0.0273,0.1959
46420,-0.8076,-0.6324,0.5751
46440,-0.2458,-0.3306,-0.0928
46460,-0.1602,0.7252,-0.1107
46480,-1.5693,-0.6829,0.6282
46500,-0.8489,-1.9592,0.5713
46520,-1.8959,-0.5514,0.3807
46540,-0.7411,-0.2606,0.3168
46560,0.16,0.0394,0.1591
46580,-0.0133,0.1426,-0.1907
46600,-0.2594,-0.3075,-0.198
46620,-0.132,-1.1116,0.2567
46640,-1.8864,0.3137,-0.1069
46660,-0.943,-0.5951,0.1836
46680,-1.0059,-0.2788,0.1973
46700,-0.9005,-0.8496,0.9431
46720,-0.2543,-0.2886,-0.0449
46740,-0.2764,0.9839,0.0667
46760,-1.8076,-0.6447,0.7173
46780,-0.7764,-1.6855,0.5481
46800,-1.718,-0.6423,0.6105
46820,-0.823,-0.2699,0.4385
46840,-0.1063,-0.187,0.1438
46860,0.3992,0.1725,-0.4572
46880,-0.2609,-0.6173,-0.0599
46900,-0.4189,-1.245,0.0468
46920,-1.1368,-0.1686,-0.0559
46940,-1.3412,-0.5835,0.1512
46960,-1.1084,-0.5248,0.524
46980,-1.0559,0.0209,0.5671
47000,0.0103,-0.2048,-0.2253
47020,-0.2802,0.5112,-0.4851
47040,-1.8617,-1.9152,0.4185
47060,-1.7396,-0.8678,1.2075
47080,-1.2662,-0.853,0.2882
47100,-0.5154,0.068,0.1367
47120,0.1207,0.3502,-0.1042
47140,0.1958,-0.1187,-0.0265
47160,-2.0452,-1.5143,-1.502
47180,-1.2852,-0.4396,0.6093
47200,-0.4109,-0.6591,0.0033
47220,-1.4769,-0.3503,0.3259
47240,-0.8625,-0.8529,0.4238
47260,-0.7534,-0.7666,0.2192
47280,0.0361,0.2853,-0.184
47300,-1.3904,0.0994,1.2883
47320,-1.265,-2.0001,-0.2772
47340,-1.4896,-0.4174,0.2148
47360,-1.223,-0.2792,0.4463
47380,-0.2161,-0.0499,-0.1855
47400,0.4277,-0.0272,-0.2655
47420,-0.6361,0.0798,0.7513
47440,-1.2584,-0.8304,0.0361
47460,-0.9645,-0.4619,-0.1211
47480,-0.9475,-0.5404,-0.0117
47500,-1.1432,-0.2616,0.204
47520,-0.728,-0.2072,0.259
47540,0.0242,0.2307,0.0704
47560,-1.0383,0.1311,0.6567
47580,-1.8654,-1.1844,-0.4078
47600,-1.8894,0.2264,0.031
47620,-1.3275,0.593,-0.1193
47640,-0.4783,0.4498,-0.073
47660,0.2457,-0.0907,0.2671
47680,0.2278,0.3052,-0.8585
47700,-2.7798,-0.9305,0.9792
47720,-1.2732,0.1498,-0.4406
47740,-1.1096,0.0145,0.1691
47760,-1.2012,-0.1293,0.2025
47780,-1.0358,-0.197,0.5563
47800,0.0469,0.0228,-0.1969
47820,-0.2307,0.4402,-0.51
47840,-2.0211,-1.4283,-0.0007
47860,-1.4069,-0.5895,1.4985
47880,-1.7157,-0.1394,0.3251
47900,-0.6592,0.0333,0.3868
47920,0.4266,0.0632,-0.363
47940,-0.1305,0.2009,-0.0033
47960,-1.8776,-1.0693,1.4851
47980,-0.4628,-0.7177,0.526
48000,-1.0197,0.0793,-0.0613
48020,-1.614,-0.6519,0.1566
48040,-1.1486,-0.2292,-0.0135
48060,-0.7172,-0.2007,0.688
48080,0.0099,0.0309,-0.1469
48100,-0.7544,0.3444,-0.024
48120,-1.9713,-1.818,0.1821
48140,-1.4711,-0.1134,1.174
48160,-1.5951,-0.2568,0.1582
48180,-0.5071,-0.1687,0.2434
48200,0.2625,-0.1099,-0.2601
48220,0.136,0.0668,0.1711
48240,-1.5491,-2.9215,-1.1729
48260,-1.1306,-0.2544,0.5563
48280,-0.8715,-0.1794,0.1057
48300,-1.3225,-0.6344,0.1447
48320,-1.1794,-0.281,0.553
