timestamp,ax,ay,az
0,-0.7046,-0.5996,0.0133
20,-0.8584,-0.3827,0.1533
40,-0.8658,-0.4374,0.2024
60,-0.8552,-0.2677,0.1885
80,-1.0055,-0.2509,0.1211
100,-1.1868,-0.3118,0.0239
120,-1.043,-0.7688,0.011
140,-0.7305,-1.1179,0.0667
160,-0.8977,-0.7161,0.0406
180,-0.9708,-0.4197,0.3058
200,-0.6152,-0.2469,0.025
220,-0.5831,-0.4142,0.0884
240,-0.4755,-0.3152,0.1301
260,-0.5554,-0.0598,0.572
280,-1.7415,-0.5555,0.6204
300,-1.0707,-0.6198,0.3573
320,-0.8844,-0.834,0.0997
340,-0.7589,-0.272,-0.2797
360,-0.8226,-0.6586,-0.2336
380,-0.8387,-0.5364,0.1332
400,-0.7882,-0.5348,0.0668
420,-0.7926,-0.5687,0.1001
440,-0.8627,-0.4872,0.1958
460,-1.0002,-0.3546,0.1588
480,-0.9001,-0.4889,0.1324
500,-0.6481,-0.5394,0.0299
520,-0.83,-0.5793,0.092
540,-0.8708,-0.5548,0.1123
560,-0.8613,-0.4801,0.1257
580,-0.9418,-0.3633,0.1776
600,-0.8568,-0.5303,0.0844
620,-0.8146,-0.5984,0.0699
640,-0.855,-0.499,0.0353
660,-0.8711,-0.5013,0.0405
680,-0.8346,-0.52,0.0256
700,-0.788,-0.5505,0.0372
720,-0.8102,-0.5862,0.0331
740,-0.8062,-0.5524,0.032
760,-0.8107,-0.5276,-0.0061
780,-0.8669,-0.5341,-0.0234
800,-0.9132,-0.7037,0.0289
820,-0.8875,-0.5287,0.0472
840,-0.8195,-0.5148,0.0012
860,-0.8087,-0.6102,-0.0045
880,-0.8203,-0.5884,0.0062
900,-0.8361,-0.5511,0.0046
920,-0.8197,-0.5967,-0.0021
940,-0.812,-0.567,0.0004
960,-0.8263,-0.5653,0.0234
980,-0.8281,-0.5519,0.0181
1000,-0.8264,-0.5521,0.0159
1020,-0.8353,-0.5638,0.0306
1040,-0.8318,-0.5441,0.0258
1060,-0.8223,-0.5712,0.0428
1080,-0.8213,-0.5416,0.0341
1100,-0.837,-0.5281,0.0427
1120,-0.8269,-0.5461,0.0326
1140,-0.8494,-0.5273,0.0483
1160,-0.8505,-0.5336,0.0353
1180,-0.8706,-0.5444,0.051
1200,-0.8348,-0.5232,0.0358
1220,-0.8285,-0.5587,0.0378
1240,-0.8132,-0.5576,0.0321
1260,-0.8243,-0.5465,0.0426
1280,-0.8352,-0.5605,0.0416
1300,-0.8438,-0.5367,0.0448
1320,-0.8372,-0.5309,0.0344
1340,-0.8214,-0.5474,0.0358
1360,-0.8433,-0.5471,0.0328
1380,-0.8593,-0.5361,0.0264
1400,-0.8401,-0.5323,0.0188
1420,-0.807,-0.5723,0.0114
1440,-0.8141,-0.5989,0.0148
1460,-0.8076,-0.5935,0.0057
1480,-0.8296,-0.5616,0.0159
1500,-0.8492,-0.5793,0.0002
1520,-0.8378,-0.5492,0.0045
1540,-0.8367,-0.5648,-0.0045
1560,-0.8396,-0.5446,0.0048
1580,-0.8202,-0.5311,-0.0032
1600,-0.8583,-0.5388,0.0184
1620,-0.8353,-0.5391,0.0023
1640,-0.8368,-0.5398,0.0012
1660,-0.8153,-0.547,-0.0033
1680,-0.8429,-0.5593,0.0153
1700,-0.8365,-0.5256,0.0231
1720,-0.8541,-0.5479,0.0479
1740,-0.8601,-0.5249,0.028
1760,-0.8501,-0.5289,0.0148
1780,-0.8215,-0.5343,0.0096
1800,-0.8395,-0.5474,0.0204
1820,-0.8423,-0.5634,0.0221
1840,-0.8324,-0.5896,0.0157
1860,-0.8442,-0.5688,0.0098
1880,-0.8593,-0.5193,0.0284
1900,-0.8931,-0.5458,0.0641
1920,-0.9037,-0.5038,0.0902
1940,-0.84,-0.5051,0.0844
1960,-0.8163,-0.4946,0.0345
1980,-0.782,-0.5236,0.0403
2000,-0.8245,-0.5212,0.0677
2020,-0.8439,-0.5466,0.0536
2040,-0.8395,-0.5487,0.0647
2060,-0.8488,-0.5475,0.0762
2080,-0.8518,-0.5383,0.11
2100,-0.8475,-0.5131,0.1079
2120,-0.8528,-0.5104,0.1018
2140,-0.844,-0.5223,0.0875
2160,-0.8419,-0.5201,0.0853
2180,-0.8401,-0.5333,0.066
2200,-0.8323,-0.5283,0.0778
2220,-0.8447,-0.506,0.0952
2240,-0.8571,-0.516,0.0933
2260,-0.856,-0.517,0.0818
2280,-0.8528,-0.5431,0.0702
2300,-0.8397,-0.5115,0.0736
2320,-0.8558,-0.5406,0.0771
2340,-0.8705,-0.493,0.1003
2360,-0.8629,-0.4709,0.0886
2380,-0.8423,-0.5099,0.0643
2400,-0.8496,-0.5116,0.0712
2420,-0.8394,-0.5057,0.075
2440,-0.8517,-0.5134,0.0789
2460,-0.848,-0.5081,0.0793
2480,-0.8488,-0.5149,0.0801
2500,-0.8539,-0.5162,0.0808
2520,-0.8662,-0.5271,0.0927
2540,-0.8467,-0.5005,0.0828
2560,-0.8507,-0.5238,0.0808
2580,-0.8497,-0.5201,0.075
2600,-0.8502,-0.5192,0.0757
2620,-0.8425,-0.5247,0.0685
2640,-0.8496,-0.5334,0.0646
2660,-0.8431,-0.5223,0.0631
2680,-0.8486,-0.5209,0.0652
2700,-0.8512,-0.5168,0.0623
2720,-0.8513,-0.5239,0.0658
2740,-0.8522,-0.5226,0.0585
2760,-0.8477,-0.5216,0.0571
2780,-0.8516,-0.5211,0.0608
2800,-0.8497,-0.5219,0.0637
2820,-0.8527,-0.5129,0.0649
2840,-0.854,-0.5179,0.0677
2860,-0.8428,-0.5308,0.0543
2880,-0.8511,-0.5273,0.062
2900,-0.8428,-0.5132,0.0577
2920,-0.8452,-0.5295,0.0568
2940,-0.8436,-0.5326,0.0616
2960,-0.8531,-0.526,0.0701
2980,-0.8489,-0.5237,0.0742
3000,-0.8455,-0.5237,0.0698
3020,-0.8398,-0.5342,0.0752
3040,-0.8402,-0.53,0.0668
3060,-0.8461,-0.5255,0.0752
3080,-0.8451,-0.5155,0.0796
3100,-0.847,-0.5278,0.0796
3120,-0.8508,-0.5278,0.0823
3140,-0.8444,-0.52,0.0792
3160,-0.8558,-0.5183,0.0853
3180,-0.8469,-0.524,0.0731
3200,-0.8444,-0.5356,0.0726
3220,-0.8452,-0.5093,0.0734
3240,-0.8569,-0.5126,0.0889
3260,-0.8477,-0.5114,0.0802
3280,-0.8491,-0.5159,0.0831
3300,-0.8518,-0.5122,0.0782
3320,-0.844,-0.5248,0.079
3340,-0.8461,-0.5325,0.0692
3360,-0.8478,-0.5337,0.0638
3380,-0.8402,-0.5249,0.0638
3400,-0.8444,-0.5266,0.0536
3420,-0.8464,-0.5283,0.0646
3440,-0.8469,-0.5258,0.0549
3460,-0.8491,-0.5292,0.0574
3480,-0.8463,-0.5277,0.0525
3500,-0.8446,-0.5288,0.0647
3520,-0.8483,-0.5273,0.059
3540,-0.8438,-0.5264,0.0558
3560,-0.844,-0.5325,0.0566
3580,-0.8464,-0.5303,0.0629
3600,-0.8441,-0.5226,0.0615
3620,-0.8433,-0.5287,0.0575
3640,-0.8434,-0.5417,0.0566
3660,-0.8401,-0.5469,0.0497
3680,-0.8457,-0.542,0.0571
3700,-0.8414,-0.5137,0.0631
3720,-0.8458,-0.5315,0.0597
3740,-0.8446,-0.5369,0.0532
3760,-0.8474,-0.5354,0.0585
3780,-0.8445,-0.5238,0.059
3800,-0.8446,-0.5361,0.051
3820,-0.8425,-0.5344,0.0458
3840,-0.8325,-0.5498,0.0453
3860,-0.8362,-0.5487,0.0575
3880,-0.8385,-0.5465,0.061
3900,-0.8462,-0.5298,0.0692
3920,-0.8463,-0.519,0.068
3940,-0.8501,-0.528,0.0771
3960,-0.8414,-0.5198,0.0773
3980,-0.8445,-0.5358,0.0769
4000,-0.8462,-0.5161,0.0771
4020,-0.8467,-0.5128,0.0829
4040,-0.848,-0.5159,0.0836
4060,-0.8508,-0.5308,0.0764
4080,-0.8394,-0.5278,0.0684
4100,-0.8365,-0.5425,0.0637
4120,-0.845,-0.5336,0.0713
4140,-0.8442,-0.5186,0.0709
4160,-0.8484,-0.5322,0.0653
4180,-0.8392,-0.5326,0.0667
4200,-0.8413,-0.5275,0.0681
4220,-0.8485,-0.5305,0.0746
4240,-0.8389,-0.527,0.0719
4260,-0.8397,-0.5328,0.0708
4280,-0.8409,-0.5406,0.063
4300,-0.8385,-0.5317,0.0652
4320,-0.8346,-0.5414,0.0609
4340,-0.8348,-0.5431,0.0637
4360,-0.8396,-0.5409,0.0618
4380,-0.8392,-0.5372,0.0642
4400,-0.8414,-0.5354,0.0675
4420,-0.8434,-0.5356,0.0647
4440,-0.8335,-0.5396,0.0651
4460,-0.837,-0.5419,0.0645
4480,-0.8402,-0.5375,0.0698
4500,-0.8396,-0.5392,0.0657
4520,-0.84,-0.5382,0.0632
4540,-0.8384,-0.5361,0.0643
4560,-0.8359,-0.5372,0.0654
4580,-0.8369,-0.5442,0.0619
4600,-0.8363,-0.5391,0.0636
4620,-0.8344,-0.5432,0.0664
4640,-0.8423,-0.5446,0.0624
4660,-0.8392,-0.5409,0.0593
4680,-0.8368,-0.5453,0.0514
4700,-0.8409,-0.5476,0.0531
4720,-0.8304,-0.5336,0.0466
4740,-0.8372,-0.5427,0.0519
4760,-0.8439,-0.5417,0.0544
4780,-0.8395,-0.5315,0.0454
4800,-0.8434,-0.5446,0.0536
4820,-0.8442,-0.5402,0.0537
4840,-0.8391,-0.533,0.0551
4860,-0.8396,-0.5438,0.0521
4880,-0.8368,-0.5447,0.0463
4900,-0.8323,-0.5438,0.0437
4920,-0.827,-0.5425,0.0464
4940,-0.8369,-0.5427,0.053
4960,-0.8413,-0.5396,0.0538
4980,-0.8345,-0.5394,0.0496
5000,-0.8505,-0.5494,0.0569
5020,-0.8408,-0.526,0.0597
5040,-0.8478,-0.5432,0.0629
5060,-0.8417,-0.5416,0.0507
5080,-0.8315,-0.5323,0.0536
5100,-0.8359,-0.5472,0.0513
5120,-0.8358,-0.5455,0.0576
5140,-0.8318,-0.5508,0.0513
5160,-0.8381,-0.5469,0.0621
5180,-0.8337,-0.5372,0.0591
5200,-0.8347,-0.5439,0.0614
5220,-0.8329,-0.5471,0.0667
5240,-0.8364,-0.5457,0.0673
5260,-0.8362,-0.5365,0.064
5280,-0.8374,-0.5408,0.069
5300,-0.8363,-0.5391,0.0696
5320,-0.8354,-0.5394,0.0707
5340,-0.837,-0.5352,0.0708
5360,-0.8329,-0.5421,0.0673
5380,-0.8342,-0.5481,0.0768
5400,-0.8348,-0.5476,0.0726
5420,-0.8324,-0.5447,0.0702
5440,-0.8328,-0.5403,0.0641
5460,-0.8356,-0.5397,0.0597
5480,-0.8291,-0.5383,0.057
5500,-0.8341,-0.5471,0.0645
5520,-0.8448,-0.5516,0.0671
5540,-0.8346,-0.5354,0.0525
5560,-0.8401,-0.5516,0.0583
5580,-0.833,-0.5388,0.0541
5600,-0.8405,-0.562,0.0536
5620,-0.853,-0.5343,0.057
5640,-0.8519,-0.5128,0.0514
5660,-0.8337,-0.5453,0.0541
5680,-0.8333,-0.5277,0.0697
5700,-0.8243,-0.5442,0.0785
5720,-0.818,-0.566,0.0775
5740,-0.8284,-0.5509,0.0758
5760,-0.8405,-0.5376,0.0807
5780,-0.8384,-0.545,0.0697
5800,-0.8502,-0.5271,0.0709
5820,-0.845,-0.5227,0.0692
5840,-0.8416,-0.5254,0.0724
5860,-0.8419,-0.5262,0.0771
5880,-0.8445,-0.5432,0.0747
5900,-0.8336,-0.5302,0.0662
5920,-0.8427,-0.54,0.0625
5940,-0.8418,-0.5366,0.0605
5960,-0.8364,-0.5472,0.0629
5980,-0.8345,-0.5471,0.0515
6000,-0.8303,-0.5477,0.0553
6020,-0.8308,-0.5487,0.0647
6040,-0.8314,-0.5485,0.0649
6060,-0.8324,-0.5438,0.0652
6080,-0.8358,-0.5443,0.0676
6100,-0.834,-0.5393,0.0667
6120,-0.8354,-0.5403,0.0748
6140,-0.8353,-0.5422,0.0673
6160,-0.8379,-0.5515,0.0669
6180,-0.8307,-0.5474,0.0651
6200,-0.8279,-0.5466,0.0642
6220,-0.8279,-0.5424,0.0685
6240,-0.8331,-0.5551,0.0714
6260,-0.8353,-0.5502,0.071
6280,-0.8324,-0.5439,0.0712
6300,-0.8276,-0.5507,0.0726
6320,-0.823,-0.5531,0.0745
6340,-0.821,-0.5679,0.0681
6360,-0.8163,-0.5869,0.0654
6380,-0.8119,-0.5776,0.0693
6400,-0.8202,-0.5698,0.071
6420,-0.827,-0.5675,0.0731
6440,-0.8323,-0.5438,0.0764
6460,-0.8335,-0.5371,0.0751
6480,-0.8405,-0.5306,0.0719
6500,-0.8458,-0.507,0.0676
6520,-0.8309,-0.5386,0.0535
6540,-0.8317,-0.5554,0.0465
6560,-0.8281,-0.5706,0.04
6580,-0.8281,-0.5549,0.043
6600,-0.8251,-0.5577,0.043
6620,-0.8372,-0.5574,0.0359
6640,-0.8247,-0.5864,0.0232
6660,-0.8121,-0.5682,0.0114
6680,-0.8308,-0.5592,0.0305
6700,-0.8318,-0.5656,0.0354
6720,-0.8301,-0.5527,0.0295
6740,-0.8304,-0.5679,0.0205
6760,-0.8292,-0.5576,0.0222
6780,-0.8271,-0.5538,0.025
6800,-0.8386,-0.5483,0.0277
6820,-0.8279,-0.5555,0.0265
6840,-0.8285,-0.5555,0.0291
6860,-0.8324,-0.5677,0.0321
6880,-0.8273,-0.5554,0.0371
6900,-0.8286,-0.5582,0.0344
6920,-0.8353,-0.552,0.0347
6940,-0.8311,-0.5551,0.0372
6960,-0.827,-0.5531,0.0365
6980,-0.8291,-0.5565,0.0369
7000,-0.83,-0.5515,0.0382
7020,-0.8284,-0.5551,0.0411
7040,-0.8274,-0.5629,0.0372
7060,-0.829,-0.5516,0.0404
7080,-0.8312,-0.5592,0.0464
7100,-0.8298,-0.5483,0.0443
7120,-0.8344,-0.5399,0.0514
7140,-0.8328,-0.5505,0.0513
7160,-0.8263,-0.5636,0.05
7180,-0.8322,-0.5549,0.0547
7200,-0.8413,-0.5421,0.0577
7220,-0.8285,-0.5461,0.0529
7240,-0.8345,-0.5522,0.057
7260,-0.8268,-0.5436,0.0486
7280,-0.8328,-0.5553,0.0469
7300,-0.8367,-0.5436,0.0521
7320,-0.8372,-0.5493,0.0558
7340,-0.8289,-0.5431,0.056
7360,-0.8362,-0.542,0.0596
7380,-0.8407,-0.5402,0.0575
7400,-0.8394,-0.5427,0.0499
7420,-0.83,-0.5477,0.0479
7440,-0.825,-0.5511,0.0509
7460,-0.8361,-0.5631,0.0547
7480,-0.8168,-0.5386,0.046
7500,-0.8223,-0.5619,0.0452
7520,-0.8081,-0.5052,0.0481
7540,-0.8685,-0.4709,0.0331
7560,-0.9205,-0.5791,0.0355
7580,-0.8147,-0.5579,0.0306
7600,-0.8019,-0.5626,0.0372
7620,-0.83,-0.5361,0.0452
7640,-0.8596,-0.5529,0.0525
7660,-0.8445,-0.5541,0.0516
7680,-0.8347,-0.5338,0.0619
7700,-0.8286,-0.5308,0.0582
7720,-0.8346,-0.5732,0.0518
7740,-0.8179,-0.584,0.0519
7760,-0.8164,-0.5616,0.0638
7780,-0.8057,-0.562,0.0676
7800,-0.8307,-0.5857,0.0732
7820,-0.8286,-0.5492,0.0869
7840,-0.825,-0.5562,0.0803
7860,-0.8187,-0.5367,0.0741
7880,-0.8501,-0.5389,0.0781
7900,-0.8466,-0.5521,0.0667
7920,-0.8048,-0.542,0.0416
7940,-0.8075,-0.5845,0.0459
7960,-0.8242,-0.5902,0.0402
7980,-0.8224,-0.562,0.0303
8000,-0.8284,-0.5568,0.0485
8020,-0.843,-0.5579,0.0353
8040,-0.8412,-0.5592,0.0419
8060,-0.8341,-0.5522,0.038
8080,-0.8221,-0.5389,0.0396
8100,-0.8224,-0.5719,0.049
8120,-0.8188,-0.5682,0.0518
8140,-0.8374,-0.5547,0.0499
8160,-0.8323,-0.5442,0.0488
8180,-0.8311,-0.5594,0.0551
8200,-0.8298,-0.5645,0.0509
8220,-0.826,-0.5602,0.0468
8240,-0.8335,-0.5354,0.0538
8260,-0.8398,-0.547,0.0574
8280,-0.8361,-0.5376,0.0626
8300,-0.8392,-0.5376,0.0605
8320,-0.838,-0.5417,0.061
8340,-0.8314,-0.551,0.0598
8360,-0.8326,-0.5538,0.0514
8380,-0.8295,-0.5405,0.0602
8400,-0.8336,-0.5474,0.0604
8420,-0.8352,-0.5477,0.0564
8440,-0.8313,-0.5559,0.0486
8460,-0.8263,-0.553,0.057
8480,-0.8356,-0.5443,0.0547
8500,-0.8383,-0.5582,0.0576
8520,-0.8239,-0.5475,0.05
8540,-0.8285,-0.556,0.0463
8560,-0.8315,-0.5574,0.0553
8580,-0.8318,-0.5424,0.0493
8600,-0.8323,-0.5601,0.0487
8620,-0.8302,-0.5466,0.0511
8640,-0.8348,-0.5509,0.0562
8660,-0.8326,-0.5441,0.0542
8680,-0.8356,-0.5485,0.0552
8700,-0.8334,-0.5415,0.0544
8720,-0.8358,-0.5477,0.0577
8740,-0.8352,-0.5515,0.0544
8760,-0.8331,-0.5426,0.056
8780,-0.8337,-0.5496,0.0551
8800,-0.8339,-0.5444,0.0516
8820,-0.8363,-0.5468,0.0552
8840,-0.8312,-0.5428,0.0591
8860,-0.8384,-0.5446,0.0581
8880,-0.8352,-0.543,0.0626
8900,-0.829,-0.5542,0.0638
8920,-0.8296,-0.5515,0.0607
8940,-0.8314,-0.5516,0.0677
8960,-0.8297,-0.5487,0.0677
8980,-0.8311,-0.5579,0.0614
9000,-0.8315,-0.5392,0.0612
9020,-0.8319,-0.553,0.0645
9040,-0.8324,-0.5458,0.0613
9060,-0.834,-0.5553,0.0601
9080,-0.8279,-0.5525,0.0576
9100,-0.8296,-0.5544,0.0549
9120,-0.8262,-0.5475,0.053
9140,-0.8381,-0.5427,0.0619
9160,-0.8333,-0.5502,0.0577
9180,-0.8313,-0.5525,0.0559
9200,-0.8275,-0.5524,0.0514
9220,-0.8282,-0.5577,0.0574
9240,-0.8301,-0.5461,0.0604
9260,-0.8353,-0.5509,0.0593
9280,-0.8326,-0.5471,0.0615
9300,-0.8286,-0.5565,0.0564
9320,-0.832,-0.5529,0.0583
9340,-0.8291,-0.5417,0.0577
9360,-0.8351,-0.5565,0.0525
9380,-0.8309,-0.551,0.0486
9400,-0.833,-0.5499,0.0482
9420,-0.8274,-0.5469,0.0502
9440,-0.8378,-0.5527,0.0529
9460,-0.834,-0.5472,0.052
9480,-0.8333,-0.5486,0.0499
9500,-0.828,-0.549,0.0404
9520,-0.8359,-0.5569,0.0493
9540,-0.8319,-0.5485,0.0477
9560,-0.8315,-0.5533,0.045
9580,-0.8348,-0.5499,0.0455
9600,-0.8342,-0.5466,0.0496
9620,-0.8347,-0.5441,0.0518
9640,-0.8352,-0.5459,0.0537
9660,-0.8363,-0.5471,0.0504
9680,-0.8306,-0.5479,0.0522
9700,-0.8347,-0.5364,0.05
9720,-0.8414,-0.5422,0.0603
9740,-0.8372,-0.5342,0.0608
9760,-0.8387,-0.5472,0.0504
9780,-0.834,-0.542,0.0485
9800,-0.8326,-0.5452,0.0487
9820,-0.8357,-0.5479,0.0573
9840,-0.8357,-0.5436,0.0569
9860,-0.8375,-0.5396,0.0591
9880,-0.8354,-0.5476,0.0532
9900,-0.8309,-0.5436,0.047
9920,-0.8359,-0.5376,0.0538
9940,-0.8434,-0.5389,0.0659
9960,-0.8416,-0.5426,0.0524
9980,-0.8328,-0.5436,0.0492
10000,-0.8363,-0.5466,0.0529
10020,-0.8357,-0.5399,0.0559
10040,-0.84,-0.5388,0.0591
10060,-0.8386,-0.5394,0.0557
10080,-0.8313,-0.5499,0.0507
10100,-0.833,-0.5461,0.0448
10120,-0.8419,-0.5466,0.0571
10140,-0.8352,-0.5419,0.0538
10160,-0.833,-0.5461,0.0504
10180,-0.8387,-0.5425,0.0531
10200,-0.8367,-0.5382,0.0536
10220,-0.8363,-0.5386,0.0519
10240,-1.0952,-0.1927,0.2577
10260,-1.2961,-0.459,0.3014
10280,-1.3999,-0.4717,-0.0405
10300,-0.6735,-0.4696,0.0613
10320,-1.0483,-0.7838,-0.1147
10340,-1.1384,-0.9609,0.0074
10360,-1.4435,-1.001,0.7263
10380,-0.833,-0.4612,0.5958
10400,-0.7003,0.3726,0.3121
10420,0.4266,-0.2157,-0.3483
10440,0.3718,-0.8418,-0.2804
10460,-1.7104,-1.4086,0.0463
10480,-1.1342,-0.9222,-0.3311
10500,-1.3501,-0.3611,0.6234
10520,-1.0557,-0.1039,0.1783
10540,-1.7028,-1.0988,0.5717
10560,-0.7891,-0.5956,0.3379
10580,0.2385,0.4047,-0.278
10600,-0.5168,0.0001,-0.0631
10620,-2.1765,-1.6858,-0.2373
10640,-1.6702,-1.1866,1.2844
10660,-1.6677,-0.158,0.6486
10680,-0.2579,0.2523,0.2186
10700,0.4465,0.0662,-0.7512
10720,0.3903,-0.7172,0.0084
10740,-2.8734,-2.9865,-0.0549
10760,-1.7855,0.0763,0.314
10780,-0.4174,-0.631,0.8699
10800,-1.173,-0.142,0.5146
10820,-0.8424,-1.5397,0.5015
10840,0.3031,0.4307,-0.4199
10860,-0.7091,-0.1241,-0.4867
10880,-1.4545,-2.2694,-0.6466
10900,-1.4508,-1.03,1.1982
10920,-1.4171,0.1831,0.3851
10940,0.2676,0.0881,-0.1223
10960,0.0861,0.0623,-0.2091
10980,-0.4106,-0.2185,0.2635
11000,-1.2186,-1.7933,0.6794
11020,-2.1561,0.0958,0.031
11040,-1.1715,-1.0173,0.7104
11060,-0.8302,-0.2754,0.4434
11080,-0.5743,-0.8086,0.1675
11100,0.464,0.9839,0.2833
11120,-1.4944,-0.1899,1.1631
11140,-1.8311,-2.5247,0.662
11160,-1.8556,0.1359,1.3909
11180,-1.1038,0.2576,0.5116
11200,0.7181,0.2306,-0.4791
11220,0.5736,-0.4687,-0.3932
11240,-2.0289,-2.3203,1.498
11260,-0.4484,-0.8351,0.3473
11280,-1.6128,0.3939,0.0096
11300,-1.5272,-0.2544,0.2471
11320,-1.0697,-0.921,1.0941
11340,-0.3986,-0.3457,0.0037
11360,-0.2648,0.8042,-0.0961
11380,-1.5361,-0.941,0.7073
11400,-0.9424,-3.3334,-1.2482
11420,-2.1312,-0.1984,0.9764
11440,-0.35,-0.1271,0.083
11460,0.7684,0.2081,-0.7189
11480,0.0458,-0.5439,0.2915
11500,-2.3206,-2.6666,-0.4363
11520,-1.4518,-0.3333,0.1921
11540,-0.8954,-0.0273,0.1038
11560,-1.7186,0.0427,0.5239
11580,-1.0819,-0.4214,0.9998
11600,-0.8116,-0.1554,-0.178
11620,0.1239,1.1519,0.0117
11640,-1.0948,-0.8202,0.8578
11660,-1.1855,-2.4622,-0.168
11680,-2.1742,-0.118,1.3812
11700,-0.592,0.2582,0.0115
11720,0.8774,0.1288,-0.7981
11740,0.4139,-0.7394,0.1595
11760,-3.0603,-2.3163,-0.8671
11780,-1.5839,-0.2125,-0.2212
11800,-0.712,-0.0583,0.6232
11820,-1.663,0.1376,0.2429
11840,-0.8579,-1.4473,0.3613
11860,-0.0547,0.4176,-0.032
11880,-0.7654,0.1409,-0.799
11900,-2.0095,-0.4965,0.3661
11920,-1.2767,-1.0774,0.7522
11940,-1.653,0.2142,0.4961
11960,0.7163,-0.0573,-0.3306
11980,1.1719,0.1678,-0.9425
12000,-1.6204,-0.41,-0.0331
12020,-2.4906,-3.6383,-1.9021
12040,-2.3505,0.6395,0.4573
12060,-1.0443,-0.5769,-0.2341
12080,-1.2546,-0.8464,0.1285
12100,-0.7673,-0.9607,0.1639
12120,-0.0795,0.7979,-0.0132
12140,-0.4968,0.3602,0.2183
12160,-3.9995,-3.9995,-1.28
12180,-1.6228,-0.7307,1.3046
12200,-1.3411,0.2378,0.0514
12220,1.08,-0.0391,-0.3402
12240,0.7339,-0.2869,-0.3788
12260,-0.8872,-1.4489,-0.4391
12280,0.7018,-1.1868,-0.6188
12300,-1.8695,0.4095,0.1742
12320,-1.9539,-0.599,0.4214
12340,-1.2058,-0.5441,0.863
12360,-0.4662,-0.0942,-0.1931
12380,0.069,0.6388,0.0496
12400,-1.1682,-0.7689,0.7161
12420,-1.2378,-3.9723,-1.0042
12440,-1.8417,-0.5197,1.1649
12460,-0.3604,-0.3903,-0.2175
12480,1.6897,0.0127,-0.8054
12500,0.171,-0.2638,0.0939
12520,-2.1238,-2.7081,-0.6099
12540,-0.7457,-0.3706,0.1433
12560,-1.1355,0.4779,-0.0638
12580,-0.95,-0.1896,0.4574
12600,-0.8533,-1.9188,0.823
12620,-0.129,0.688,-0.1598
12640,-0.6028,0.6152,-0.4854
12660,-1.957,-0.5144,0.2706
12680,-1.7693,-1.1593,1.2823
12700,-1.6869,0.3938,0.4141
12720,0.5182,-0.4808,-0.2363
12740,1.4829,0.0266,-0.7732
12760,-2.0791,-0.3307,0.022
12780,1.1205,-1.0098,-0.7867
12800,-1.8608,-0.0608,0.1372
12820,-1.5247,-0.6542,0.9247
12840,-0.9967,-1.359,1.0073
12860,-0.8878,-0.321,0.0891
12880,0.1526,0.7371,-0.1862
12900,-0.3406,0.145,0.1664
12920,-3.9995,-3.9349,-0.6727
12940,-1.9415,-0.5424,1.4611
12960,-0.8212,-0.0516,-0.2275
12980,1.1504,-0.074,-0.7933
13000,0.3003,-0.5537,0.1271
13020,-0.5708,-0.7959,-0.6191
13040,0.4034,-1.0648,-0.3303
13060,-1.4897,0.2958,-0.0768
13080,-2.2178,-0.4431,0.6182
13100,-0.92,-0.9279,0.7761
13120,-0.5049,-0.1107,-0.0419
13140,-0.1055,0.7333,0.2385
13160,-1.4559,-0.5878,0.9509
13180,-0.6569,-3.3258,-1.002
13200,-2.116,-0.3068,0.9583
13220,-0.3286,-0.254,0.0771
13240,1.4542,0.0237,-0.927
13260,-0.5914,-0.5027,0.6941
13280,-1.9634,-3.1565,-0.3674
13300,-1.1959,0.0918,0.4232
13320,-0.9686,0.054,-0.1691
13340,-0.7089,0.2814,-0.2645
13360,-0.73,-1.4904,0.465
13380,-0.214,0.3977,-0.2681
13400,-0.7218,0.4351,-0.2531
13420,-1.777,-0.5947,1.0228
13440,-0.999,-0.7382,1.058
13460,-1.6813,0.095,0.5571
13480,-0.1157,0.0122,0.0527
13500,1.1404,0.0153,-0.6757
13520,-0.887,-1.0288,0.744
13540,-3.0914,-3.9529,-0.3969
13560,-2.1866,0.2261,-0.1826
13580,-1.2817,-0.4528,0.2916
13600,-1.1243,-0.2914,0.0575
13620,-0.8954,-1.0564,0.6979
13640,-0.192,0.9102,0.0131
13660,-0.4473,0.3623,-0.3815
13680,-2.9978,-1.072,0.5345
13700,-1.5291,-0.9971,1.1211
13720,-1.6119,0.2218,0.3833
13740,0.2056,-0.1653,-0.125
13760,1.4205,0.0289,-0.7513
13780,-1.4579,-0.4457,0.2673
13800,-1.049,-2.9775,0.0229
13820,-2.178,0.0603,0.0778
13840,-1.3374,-0.6365,0.5034
13860,-1.2656,-0.7355,0.5402
13880,-0.7677,-1.0133,0.4087
13900,0.1116,0.8347,-0.1146
13920,-0.6041,0.0804,-0.4474
13940,-3.9995,-2.9683,-0.7207
13960,-1.2462,-0.7042,1.0068
13980,-1.2666,-0.0457,0.021
14000,0.8585,-0.0377,-0.1531
14020,0.7308,-0.0112,-0.5051
14040,-1.8236,-2.0869,0.2682
14060,0.3752,-1.405,-0.4535
14080,-2.2692,0.1089,-0.4312
14100,-0.7886,-0.198,0.2424
14120,-1.7266,-0.1515,0.4161
14140,-0.4709,-0.5436,-0.2817
14160,-0.1312,0.5648,0.0668
14180,-0.6261,0.0913,-0.092
14200,-3.8007,-3.9969,-0.4653
14220,-1.6055,-0.4545,1.1718
14240,-1.2662,0.2512,0.0671
14260,0.8325,0.001,-0.1382
14280,0.709,-0.1135,-0.4371
14300,-0.7986,-0.8655,0.0487
14320,-0.3011,-1.575,-0.0236
14340,-2.1251,0.4558,0.1719
14360,-1.4971,-0.5369,0.1766
14380,-1.1398,-0.7059,0.0372
14400,-0.7902,-0.9037,0.4901
14420,0.0925,0.8811,-0.1046
14440,-0.5375,0.047,-0.3568
14460,-2.0656,-2.6542,-0.9315
14480,-1.816,-0.5529,1.3712
14500,-1.3651,-0.2386,0.3209
14520,0.3381,-0.3649,-0.0353
14540,0.7905,0.1376,-0.6532
14560,-0.7621,0.0131,0.287
14580,-2.9489,-3.9995,-0.9215
14600,-1.7584,-0.2223,-0.0853
14620,-0.7426,-0.4512,0.6754
14640,-1.1411,0.1995,-0.0592
14660,-0.8346,-0.6938,0.6652
14680,-0.1718,0.2133,-0.165
14700,-0.3239,0.678,-0.3666
14720,-1.6873,-0.8314,0.528
14740,-1.3792,-0.9758,1.0959
14760,-1.4297,-0.0475,0.3049
14780,-0.1591,-0.5099,-0.0474
14800,0.8679,0.3672,-0.7379
14820,-0.9761,-0.1835,0.8657
14840,-2.7174,-3.7887,-1.3218
14860,-1.5348,-0.3345,-0.0248
14880,-0.9675,-0.2345,0.6646
14900,-0.9843,-0.0588,0.4414
14920,-1.0823,-0.9235,1.2155
14940,0.0006,0.1901,-0.1598
14960,-0.2328,0.7303,-0.1055
14980,-1.672,-0.7443,0.5406
15000,-0.5403,-1.4369,0.7366
15020,-1.7671,-0.0698,0.4607
15040,-0.2495,-0.486,-0.0212
15060,0.9672,0.002,-0.6053
15080,-0.2675,-0.1444,0.1868
15100,-0.6447,-1.8782,0.196
15120,-0.3365,-0.1501,-1.1548
15140,-1.1664,0.4303,0.1732
15160,-2.338,-0.9606,0.3558
15180,-1.1786,-0.6853,0.8513
15200,-0.265,-0.3688,-0.0784
15220,-0.1053,0.9341,-0.0585
15240,-1.1228,-0.4493,0.701
15260,-2.7408,-3.9995,-0.5323
15280,-2.2849,-0.3269,1.0527
15300,-0.9672,-0.1821,0.2548
15320,0.2129,0.0083,0.0613
15340,0.5266,0.0294,-0.0933
15360,-1.0635,-0.2142,0.0226
15380,-3.7826,-1.7825,0.8973
15400,-1.1534,0.0715,-0.2847
15420,-1.5535,0.0446,0.1858
15440,-0.9424,-0.2098,-0.2369
15460,-0.8667,-1.0504,0.6002
15480,-0.1042,0.0281,-0.2444
15500,-0.4022,0.3978,-0.2089
15520,-1.9706,-0.7365,0.4418
15540,-0.9844,-0.9413,1.1599
15560,-1.507,-0.176,0.2125
15580,-0.1749,-0.479,0.1564
15600,1.0313,0.0159,-0.8121
15620,-0.5808,-0.2452,0.4077
15640,-1.5604,-3.1547,-2.6569
15660,-1.1653,-0.4421,0.2109
15680,-1.0298,-0.0981,0.4186
15700,-1.256,-0.442,0.3722
15720,-1.1202,-1.0161,1.0693
15740,-0.1389,-0.1588,-0.1801
15760,-0.1693,0.793,-0.0305
15780,-1.001,-0.4291,0.3623
15800,-0.308,-2.8209,-0.7924
15820,-1.6693,-0.5167,0.6919
15840,-0.8179,-0.2177,0.3469
15860,0.5564,0.2062,-0.1888
15880,-0.0703,-0.085,0.0898
15900,-0.168,-0.8165,-0.0984
15920,-1.4368,-2.0073,0.1407
15940,-1.1262,0.3408,-0.1399
15960,-1.4586,-0.7886,0.2286
15980,-1.4933,-0.2389,0.225
16000,-0.6693,-0.5614,0.3489
16020,0.0835,0.5348,-0.1118
16040,-0.5371,0.0411,-0.1218
16060,-1.9941,-1.5886,0.0175
16080,-1.6017,-1.015,1.2111
16100,-1.3002,-0.0492,0.6536
16120,0.052,0.1594,-0.2001
16140,0.6635,0.1541,-0.272
16160,-0.5619,-0.6849,0.0933
16180,-2.4731,-3.6849,-1.2938
16200,-1.9,-0.239,0.3646
16220,-0.5776,-0.3235,0.3212
16240,-1.4576,0.4687,0.0695
16260,-1.254,-0.9525,0.6545
16280,-0.0338,-0.0931,-0.4246
16300,-0.2856,0.7528,0.1788
16320,-1.4165,-0.8542,1.146
16340,-0.4946,-3.061,-0.712
16360,-1.906,-0.2668,0.6743
16380,-0.5208,-0.3597,0.3632
16400,0.1937,0.1777,-0.2386
16420,0.0621,-0.1774,-0.2029
16440,-2.4546,-1.7151,-1.1216
16460,-0.0992,-1.373,-0.4358
16480,-1.3954,-0.3444,0.1611
16500,-1.5094,-0.5181,0.1248
16520,-1.0725,-0.6566,0.3978
16540,-0.6514,-0.2504,0.243
16560,-0.3168,0.4058,0.0638
16580,-0.7539,0.453,-0.1121
16600,-1.9719,-1.3069,-0.1232
16620,-1.5879,-1.1544,0.5913
16640,-1.5424,-0.265,0.2473
16660,-0.5554,-0.2928,0.0643
16680,0.7072,0.3099,-0.1532
16700,0.0168,0.1174,-0.0044
16720,-1.1792,-1.9703,0.8113
16740,0.0696,-0.9073,-0.9197
16760,-1.3309,-0.4064,-0.4331
16780,-1.2849,-0.8983,0.5657
16800,-0.7416,-0.2681,0.0168
16820,-0.7112,-0.3539,0.4111
16840,-0.3677,0.1987,-0.1517
16860,-0.8274,0.0526,0.0394
16880,-1.4611,-0.7694,0.1986
16900,-1.2356,-1.6133,0.1276
16920,-1.395,-0.902,0.2047
16940,-1.4824,-0.011,0.4744
16960,-0.5431,-0.3564,0.0205
16980,-0.106,0.0022,0.0039
17000,-0.2848,0.0234,0.2422
17020,-1.5562,-0.4689,0.3406
17040,-0.296,-0.8668,0.5243
17060,-1.0204,-0.7377,-0.09
17080,-0.3501,-0.9912,-0.0309
17100,-1.9939,-0.7521,0.2676
17120,-0.4561,-0.4639,0.004
17140,-1.4385,-0.3428,0.0044
17160,-1.2262,-0.5366,0.3517
17180,-0.8816,-0.0216,0.5486
17200,-0.1587,-0.0403,-0.0872
17220,-0.2811,0.1567,-0.245
17240,-1.7963,-1.3298,0.5625
17260,-1.5594,-1.2014,0.8615
17280,-1.5126,-0.3119,0.4806
17300,-0.7307,-0.37,0.1138
17320,-0.0599,0.2057,-0.0175
17340,0.1818,-0.0988,-0.0522
17360,-0.4319,-0.6085,0.1909
17380,-1.5284,-2.0442,-0.6963
17400,-1.3191,-0.3114,-0.114
17420,-0.6394,-0.6353,0.2656
17440,-1.0333,-0.3132,0.0049
17460,-0.7467,-0.481,0.0333
17480,-0.5449,-0.2936,0.1885
17500,-0.7706,0.0051,0.1315
17520,-0.9413,0.163,-0.0642
17540,-0.9626,-0.9099,0.1265
17560,-1.3151,-2.3105,0.1202
17580,-1.4154,-0.6989,0.1858
17600,-0.8665,-0.496,0.3749
17620,-0.4277,-0.1768,-0.0886
17640,-0.0211,-0.1306,-0.1165
17660,-0.2163,-0.0188,0.4017
17680,-1.854,-0.4005,0.6829
17700,-0.3422,-0.3512,0.4734
17720,-1.9324,-1.8258,0.0138
