timestamp,ax,ay,az
0,-0.8342,0.2594,0.4602
20,-0.8345,0.2583,0.4586
40,-0.8336,0.2593,0.4607
60,-0.8335,0.259,0.4612
80,-0.8337,0.2595,0.4604
100,-0.8339,0.2572,0.459
120,-0.8365,0.2604,0.4585
140,-0.8356,0.2596,0.458
160,-0.8341,0.2592,0.4595
180,-0.835,0.2611,0.4631
200,-0.8361,0.2574,0.4597
220,-0.8363,0.2576,0.4587
240,-0.8331,0.2612,0.4598
260,-0.8367,0.2592,0.4576
280,-0.8329,0.2603,0.46
300,-0.8329,0.2587,0.4595
320,-0.8361,0.2579,0.4602
340,-0.8345,0.259,0.4589
360,-0.8362,0.2576,0.4585
380,-0.8351,0.2587,0.4583
400,-0.8381,0.2588,0.4602
420,-0.8328,0.2587,0.4578
440,-0.8359,0.2587,0.4587
460,-0.8369,0.259,0.4581
480,-0.8357,0.2592,0.4569
500,-0.8346,0.2588,0.4596
520,-0.8344,0.2596,0.4584
540,-0.8348,0.2592,0.4585
560,-0.8362,0.2584,0.4575
580,-0.8365,0.26,0.4569
600,-0.8373,0.2588,0.4583
620,-0.8334,0.2581,0.4585
640,-0.8354,0.2594,0.4611
660,-0.8344,0.2606,0.4563
680,-0.8378,0.2581,0.4585
700,-0.8357,0.2593,0.4583
720,-0.8383,0.2606,0.458
740,-0.8342,0.26,0.4589
760,-0.833,0.2581,0.4613
780,-0.8354,0.2576,0.4602
800,-0.8348,0.2598,0.4594
820,-0.8354,0.2598,0.4586
840,-0.8358,0.2587,0.4587
860,-0.8335,0.2585,0.4589
880,-0.8331,0.2606,0.4633
900,-0.8346,0.2593,0.4568
920,-0.8364,0.2578,0.4613
940,-0.8323,0.26,0.4596
960,-0.8344,0.2579,0.4612
980,-0.8314,0.2578,0.4625
1000,-0.832,0.2574,0.4626
1020,-0.8333,0.2587,0.4618
1040,-0.8326,0.2594,0.4611
1060,-0.8348,0.2581,0.4611
1080,-0.8335,0.2556,0.4636
1100,-0.8368,0.2578,0.4626
1120,-0.8304,0.2596,0.4645
1140,-0.8313,0.2566,0.4646
1160,-0.8335,0.2563,0.4624
1180,-0.8336,0.2601,0.4598
1200,-0.8351,0.2594,0.4611
1220,-0.8329,0.2576,0.4637
1240,-0.8344,0.2581,0.4625
1260,-0.8318,0.2579,0.465
1280,-0.833,0.2579,0.4614
1300,-0.8348,0.2579,0.4614
1320,-0.8328,0.2583,0.4607
1340,-0.8341,0.2584,0.4641
1360,-0.8336,0.2584,0.4596
1380,-0.834,0.2579,0.4611
1400,-0.8333,0.2593,0.4614
1420,-0.8357,0.2577,0.46
1440,-0.8333,0.2607,0.4604
1460,-0.8324,0.2588,0.4617
1480,-0.8339,0.2574,0.4602
1500,-0.8339,0.2584,0.4604
1520,-0.8367,0.2595,0.4583
1540,-0.8363,0.2588,0.4591
1560,-0.8342,0.2589,0.4598
1580,-0.8329,0.259,0.4646
1600,-0.8353,0.2579,0.4587
1620,-0.8362,0.2583,0.4578
1640,-0.8341,0.2605,0.4594
1660,-0.8375,0.2595,0.4572
1680,-0.8337,0.2592,0.4586
1700,-0.8345,0.259,0.4586
1720,-0.8362,0.2614,0.4615
1740,-0.8405,0.2587,0.4512
1760,-0.8383,0.2581,0.4572
1780,-0.8319,0.2581,0.4625
1800,-0.8325,0.2554,0.4614
1820,-0.8342,0.2599,0.4636
1840,-0.8363,0.2605,0.4572
1860,-0.8383,0.2606,0.4551
1880,-0.8373,0.26,0.4567
1900,-0.8368,0.2605,0.4589
1920,-0.8331,0.2588,0.4581
1940,-0.832,0.2603,0.4579
1960,-0.8354,0.2583,0.4597
1980,-0.8353,0.2603,0.4567
2000,-0.8358,0.2592,0.4583
2020,-0.8352,0.2605,0.4586
2040,-0.8346,0.2585,0.4581
2060,-0.8329,0.2607,0.4629
2080,-0.8362,0.2584,0.457
2100,-0.8359,0.2576,0.4604
2120,-0.832,0.2596,0.4597
2140,-0.8342,0.2592,0.4618
2160,-0.8322,0.2594,0.4607
2180,-0.8339,0.2593,0.4619
2200,-0.8345,0.2582,0.4612
2220,-0.8356,0.2576,0.46
2240,-0.8361,0.2588,0.4617
2260,-0.8324,0.2578,0.4622
2280,-0.8335,0.259,0.4644
2300,-0.8291,0.2614,0.4687
2320,-0.8313,0.2562,0.4659
2340,-0.8353,0.2557,0.4669
2360,-0.8329,0.2581,0.4633
2380,-0.8315,0.256,0.4689
2400,-0.825,0.2584,0.4696
2420,-0.8319,0.2545,0.4692
2440,-0.8328,0.2538,0.4678
2460,-0.83,0.2562,0.4656
2480,-0.8306,0.2581,0.4667
2500,-0.8353,0.2565,0.4635
2520,-0.8367,0.2594,0.4608
2540,-0.8346,0.2615,0.4574
2560,-0.8353,0.2551,0.4597
2580,-0.8341,0.2568,0.4607
2600,-0.8341,0.2565,0.4591
2620,-0.8357,0.2601,0.4568
2640,-0.833,0.2646,0.4517
2660,-0.837,0.2594,0.4532
2680,-0.8479,0.256,0.4465
2700,-0.8434,0.2645,0.4462
2720,-0.8412,0.256,0.416
2740,-0.8544,0.26,0.4586
2760,-0.8417,0.2633,0.4436
2780,-0.8451,0.2612,0.4359
2800,-0.8508,0.2689,0.4376
2820,-0.8466,0.2581,0.4344
2840,-0.851,0.2622,0.4216
2860,-0.8489,0.2642,0.4274
2880,-0.8525,0.2585,0.4275
2900,-0.8535,0.2666,0.4196
2920,-0.8572,0.2687,0.4305
2940,-0.8485,0.2694,0.401
2960,-0.8676,0.2646,0.4014
2980,-0.8735,0.267,0.3983
3000,-0.8706,0.2775,0.3881
3020,-0.8524,0.2743,0.3827
3040,-0.8912,0.2593,0.373
3060,-0.8663,0.2777,0.3679
3080,-0.8789,0.2734,0.3607
3100,-0.8871,0.2679,0.3636
3120,-0.8749,0.2697,0.3479
3140,-0.8873,0.2716,0.3698
3160,-0.8779,0.2678,0.3599
3180,-0.8821,0.2662,0.3636
3200,-0.8818,0.2667,0.3671
3220,-0.9272,0.295,0.4031
3240,-0.8529,0.2628,0.3519
3260,-0.8918,0.2745,0.3641
3280,-0.8842,0.2705,0.3644
3300,-0.8777,0.2694,0.3634
3320,-0.8823,0.2688,0.3684
3340,-0.8815,0.2684,0.369
3360,-0.8767,0.2666,0.3651
3380,-0.8818,0.2683,0.3663
3400,-0.8798,0.2683,0.3623
3420,-0.8812,0.2683,0.3645
3440,-0.8767,0.2676,0.3693
3460,-0.8799,0.269,0.3691
3480,-0.8861,0.2697,0.3641
3500,-0.8857,0.267,0.3584
3520,-0.8796,0.2704,0.3634
3540,-0.8792,0.2714,0.364
3560,-0.8789,0.2688,0.364
3580,-0.8835,0.2665,0.3646
3600,-0.882,0.2686,0.3632
3620,-0.8806,0.2705,0.3634
3640,-0.8756,0.2715,0.3674
3660,-0.8793,0.2659,0.3674
3680,-0.8812,0.2648,0.3615
3700,-0.8821,0.267,0.3589
3720,-0.8827,0.2714,0.3623
3740,-0.8812,0.2723,0.3599
3760,-0.8799,0.2689,0.3634
3780,-0.8784,0.2656,0.3651
3800,-0.8796,0.2667,0.365
3820,-0.8759,0.2682,0.3693
3840,-0.881,0.2681,0.3639
3860,-0.8798,0.2697,0.3624
3880,-0.8865,0.2682,0.3617
3900,-0.8785,0.2665,0.3641
3920,-0.8804,0.2695,0.3625
3940,-0.8826,0.2725,0.3606
3960,-0.8806,0.2694,0.3657
3980,-0.8792,0.2666,0.3674
4000,-0.8773,0.2671,0.3702
4020,-0.8794,0.2671,0.3662
4040,-0.8782,0.2705,0.3624
4060,-0.8842,0.2694,0.3619
4080,-0.8834,0.2688,0.3635
4100,-0.8772,0.2694,0.3625
4120,-0.8783,0.2726,0.3672
4140,-0.8833,0.2692,0.3639
4160,-0.8821,0.2682,0.3621
4180,-0.8799,0.2688,0.3643
4200,-0.8798,0.2671,0.3632
4220,-0.876,0.269,0.3672
4240,-0.88,0.2687,0.3646
4260,-0.8799,0.2673,0.3627
4280,-0.8807,0.2676,0.3639
4300,-0.8837,0.2688,0.3622
4320,-0.8789,0.2708,0.364
4340,-0.8823,0.2699,0.3649
4360,-0.8763,0.269,0.3673
4380,-0.8804,0.2661,0.3652
4400,-0.8828,0.269,0.364
4420,-0.8821,0.2673,0.3636
4440,-0.8789,0.2693,0.366
4460,-0.8805,0.267,0.3669
4480,-0.8785,0.2655,0.3716
4500,-0.8749,0.2667,0.3699
4520,-0.8798,0.266,0.363
4540,-0.8816,0.2703,0.3661
4560,-0.881,0.2699,0.3616
4580,-0.8805,0.266,0.3687
4600,-0.8788,0.2677,0.3661
4620,-0.8821,0.2692,0.3617
4640,-0.8813,0.267,0.3641
4660,-0.881,0.2684,0.3639
4680,-0.8777,0.2695,0.3657
4700,-0.8781,0.2664,0.3667
4720,-0.8794,0.2664,0.3654
4740,-0.8815,0.2692,0.3646
4760,-0.8802,0.2693,0.3647
4780,-0.8812,0.2672,0.3621
4800,-0.8861,0.2694,0.3644
4820,-0.8774,0.271,0.36
4840,-0.8818,0.2635,0.3606
4860,-0.8816,0.2648,0.3644
4880,-0.8752,0.2667,0.3689
4900,-0.8794,0.2708,0.3563
4920,-0.8672,0.3107,0.3711
4940,-0.8961,0.2827,0.3826
4960,-0.8851,0.2802,0.3716
4980,-0.8715,0.2856,0.369
5000,-0.8744,0.2911,0.3798
5020,-0.8773,0.2849,0.3969
5040,-0.8628,0.2689,0.3997
5060,-0.8546,0.2661,0.4124
5080,-0.8475,0.276,0.4327
5100,-0.8417,0.2731,0.4545
5120,-0.8212,0.2631,0.4469
5140,-0.8257,0.2637,0.4663
5160,-0.8131,0.2554,0.4813
5180,-0.8115,0.2499,0.4939
5200,-0.8082,0.2422,0.4884
5220,-0.823,0.2471,0.4971
5240,-0.8127,0.2485,0.4946
5260,-0.8231,0.2496,0.4824
5280,-0.8223,0.2517,0.485
5300,-0.8212,0.2408,0.481
5320,-0.8291,0.2362,0.4866
5340,-0.8241,0.2397,0.4841
5360,-0.828,0.2402,0.4719
5380,-0.8237,0.2526,0.4844
5400,-0.8314,0.2517,0.4741
5420,-0.823,0.2428,0.4775
5440,-0.8385,0.2516,0.4659
5460,-0.8352,0.2469,0.4529
5480,-0.8474,0.2524,0.4446
5500,-0.8488,0.2676,0.4526
5520,-0.8492,0.2688,0.4303
5540,-0.8507,0.2673,0.4337
5560,-0.8544,0.2598,0.4323
5580,-0.8506,0.2604,0.4384
5600,-0.8505,0.2727,0.4263
5620,-0.8542,0.2645,0.429
5640,-0.8602,0.2518,0.4359
5660,-0.8517,0.2554,0.4246
5680,-0.8634,0.2623,0.4192
5700,-0.8556,0.2676,0.4182
5720,-0.851,0.2671,0.4233
5740,-0.8599,0.2635,0.4117
5760,-0.856,0.2635,0.4116
5780,-0.8611,0.2638,0.4117
5800,-0.8597,0.2697,0.4147
5820,-0.8546,0.2745,0.412
5840,-0.8553,0.2727,0.4115
5860,-0.8585,0.2734,0.4094
5880,-0.858,0.2699,0.4082
5900,-0.8605,0.2722,0.4059
5920,-0.8591,0.2765,0.4041
5940,-0.8594,0.2745,0.4086
5960,-0.8624,0.313,0.4623
5980,-0.8577,0.2634,0.4216
6000,-0.8613,0.2759,0.3987
6020,-0.8571,0.2736,0.4114
6040,-0.8553,0.2733,0.4061
6060,-0.8596,0.2736,0.4066
6080,-0.8589,0.2739,0.4087
6100,-0.8562,0.2728,0.4102
6120,-0.8586,0.2734,0.4091
6140,-0.8582,0.2714,0.4106
6160,-0.8561,0.2717,0.4116
6180,-0.8557,0.2739,0.4149
6200,-0.8584,0.2706,0.4104
6220,-0.8572,0.2743,0.4117
6240,-0.8561,0.2732,0.4103
6260,-0.8583,0.2719,0.4109
6280,-0.8553,0.2744,0.411
6300,-0.8553,0.2733,0.4136
6320,-0.8557,0.2728,0.4127
6340,-0.856,0.2732,0.4116
6360,-0.8585,0.2719,0.412
6380,-0.8572,0.2728,0.411
6400,-0.8578,0.2744,0.4113
6420,-0.8546,0.2728,0.4111
6440,-0.8564,0.2705,0.4122
6460,-0.8545,0.2739,0.4155
6480,-0.8578,0.272,0.4119
6500,-0.8561,0.2737,0.4115
6520,-0.8519,0.2736,0.4131
6540,-0.8547,0.2684,0.417
6560,-0.8531,0.2708,0.416
6580,-0.8542,0.2734,0.4131
6600,-0.8562,0.2703,0.4158
6620,-0.8527,0.2719,0.4152
6640,-0.8534,0.272,0.4209
6660,-0.8535,0.2699,0.4166
6680,-0.8536,0.269,0.4207
6700,-0.8527,0.2742,0.4193
6720,-0.8553,0.271,0.4153
6740,-0.8507,0.2715,0.4213
6760,-0.8486,0.2679,0.424
6780,-0.8518,0.2666,0.422
6800,-0.8519,0.2695,0.4225
6820,-0.8525,0.27,0.4224
6840,-0.851,0.2701,0.4209
6860,-0.8546,0.271,0.4199
6880,-0.8507,0.2714,0.4235
6900,-0.8519,0.2683,0.4233
6920,-0.8528,0.2662,0.4219
6940,-0.8492,0.2649,0.422
6960,-0.8527,0.2683,0.422
6980,-0.851,0.2705,0.4221
7000,-0.8533,0.2675,0.4237
7020,-0.8505,0.2684,0.4254
7040,-0.8488,0.2712,0.4238
7060,-0.8508,0.2694,0.4233
7080,-0.8524,0.2681,0.4248
7100,-0.8517,0.2693,0.4235
7120,-0.8541,0.2701,0.4191
7140,-0.8539,0.2684,0.4213
7160,-0.8506,0.2706,0.4208
7180,-0.8522,0.269,0.4208
7200,-0.8522,0.2715,0.4199
7220,-0.8525,0.2716,0.4192
7240,-0.8552,0.2701,0.4196
7260,-0.8549,0.272,0.4165
7280,-0.8552,0.2744,0.4124
7300,-0.8533,0.2727,0.4156
7320,-0.8574,0.2723,0.4158
7340,-0.8555,0.2742,0.4126
7360,-0.8584,0.2734,0.4122
7380,-0.8566,0.2737,0.4111
7400,-0.8555,0.2737,0.4115
7420,-0.8535,0.2738,0.4116
7440,-0.8552,0.2738,0.4135
7460,-0.8555,0.2736,0.4147
7480,-0.8568,0.274,0.4117
7500,-0.8557,0.275,0.4104
7520,-0.8584,0.2732,0.412
7540,-0.8534,0.2726,0.4128
7560,-0.8558,0.2754,0.4154
7580,-0.856,0.2728,0.4111
7600,-0.856,0.272,0.4138
7620,-0.8546,0.2751,0.4124
7640,-0.8584,0.2738,0.4127
7660,-0.8519,0.2764,0.4146
7680,-0.8533,0.2731,0.4154
7700,-0.8544,0.2704,0.4155
7720,-0.854,0.2734,0.4146
7740,-0.8538,0.2747,0.4136
7760,-0.8574,0.272,0.4148
7780,-0.8527,0.2729,0.4177
7800,-0.8511,0.274,0.4221
7820,-0.8544,0.2719,0.4175
7840,-0.8552,0.2709,0.4189
7860,-0.8524,0.2726,0.4183
7880,-0.853,0.2723,0.4199
7900,-0.8513,0.2748,0.4189
7920,-0.8502,0.2712,0.4208
7940,-0.8536,0.2693,0.4193
7960,-0.8535,0.2733,0.4177
7980,-0.8538,0.2714,0.4194
8000,-0.8516,0.2703,0.4197
8020,-0.8524,0.2712,0.4203
8040,-0.8527,0.2734,0.4225
8060,-0.8519,0.2717,0.4185
8080,-0.8552,0.2727,0.4187
8100,-0.8517,0.2717,0.4178
8120,-0.8527,0.2733,0.4182
8140,-0.8519,0.2738,0.4203
8160,-0.851,0.27,0.4197
8180,-0.8519,0.2712,0.4193
8200,-0.8529,0.2748,0.4169
8220,-0.8547,0.2732,0.4183
8240,-0.8541,0.2733,0.4141
8260,-0.8555,0.2736,0.4165
8280,-0.8553,0.2743,0.4148
8300,-0.8544,0.2729,0.417
8320,-0.8551,0.2731,0.4153
8340,-0.8552,0.2723,0.4159
8360,-0.8541,0.2745,0.4178
8380,-0.8533,0.2728,0.417
8400,-0.8547,0.2723,0.4186
8420,-0.8525,0.2729,0.4172
8440,-0.8552,0.2728,0.4159
8460,-0.8535,0.2716,0.4167
8480,-0.8541,0.2733,0.4186
8500,-0.8519,0.2734,0.4221
8520,-0.855,0.2699,0.4188
8540,-0.8519,0.2722,0.4192
8560,-0.8513,0.2742,0.418
8580,-0.8557,0.2717,0.4166
8600,-0.8538,0.2739,0.4167
8620,-0.8521,0.2723,0.4185
8640,-0.854,0.2706,0.4187
8660,-0.8533,0.2734,0.4188
8680,-0.8541,0.2726,0.4186
8700,-0.8518,0.2701,0.4186
8720,-0.8552,0.2714,0.4191
8740,-0.8528,0.2751,0.4171
8760,-0.8545,0.2712,0.418
8780,-0.8536,0.2716,0.4174
8800,-0.8514,0.2739,0.4188
8820,-0.8513,0.2715,0.4198
8840,-0.8524,0.2759,0.4166
8860,-0.8546,0.2734,0.4186
8880,-0.8553,0.2703,0.4181
8900,-0.853,0.2732,0.4177
8920,-0.8535,0.2731,0.4188
8940,-0.8513,0.271,0.4189
8960,-0.8555,0.2722,0.4198
8980,-0.8525,0.2731,0.4176
9000,-0.8522,0.2715,0.4186
9020,-0.8525,0.2712,0.4207
9040,-0.8514,0.2721,0.4199
9060,-0.8489,0.2712,0.4233
9080,-0.8494,0.2717,0.4233
9100,-0.8517,0.2716,0.4238
9120,-0.8508,0.2711,0.4232
9140,-0.8519,0.2714,0.4232
9160,-0.8518,0.2683,0.426
9180,-0.8513,0.2711,0.4233
9200,-0.8484,0.2728,0.4272
9220,-0.8506,0.2686,0.4258
9240,-0.8505,0.2705,0.4269
9260,-0.848,0.2715,0.426
9280,-0.8513,0.2675,0.426
9300,-0.8489,0.2715,0.4272
9320,-0.8484,0.2693,0.428
9340,-0.8484,0.2676,0.4283
9360,-0.8489,0.2692,0.4288
9380,-0.8503,0.2686,0.4271
9400,-0.8491,0.2688,0.4272
9420,-0.85,0.2686,0.4275
9440,-0.8503,0.2697,0.4263
9460,-0.8505,0.2664,0.4281
9480,-0.8507,0.2671,0.4282
9500,-0.8468,0.2668,0.4291
9520,-0.8458,0.2699,0.4294
9540,-0.8481,0.2687,0.4286
9560,-0.8505,0.2676,0.4269
9580,-0.8502,0.2698,0.4272
9600,-0.8506,0.2705,0.4263
9620,-0.8517,0.2694,0.425
9640,-0.8491,0.2688,0.4246
9660,-0.8507,0.2701,0.4291
9680,-0.8502,0.2673,0.4269
9700,-0.8481,0.2689,0.4263
9720,-0.849,0.27,0.4265
9740,-0.8522,0.269,0.424
9760,-0.849,0.2708,0.4258
9780,-0.8484,0.2692,0.4268
9800,-0.8494,0.2689,0.4266
9820,-0.8502,0.2705,0.4244
9840,-0.851,0.2704,0.4261
9860,-0.8519,0.2687,0.4233
9880,-0.8513,0.2708,0.4244
9900,-0.8496,0.27,0.427
9920,-0.8517,0.2675,0.4249
9940,-0.8508,0.2698,0.4242
9960,-0.8486,0.2706,0.427
9980,-0.8489,0.269,0.4261
10000,-0.8484,0.2708,0.4294
10020,-0.848,0.2681,0.4285
10040,-0.85,0.269,0.4268
10060,-0.8492,0.2698,0.4271
10080,-0.8507,0.269,0.4268
10100,-0.8472,0.2681,0.4271
10120,-0.8503,0.2675,0.4308
10140,-0.8485,0.2675,0.4291
10160,-0.8489,0.267,0.4305
10180,-0.8489,0.2695,0.429
10200,-0.8486,0.2686,0.4309
10220,-0.8458,0.2693,0.4338
10240,-0.8441,0.2667,0.4333
10260,-0.8466,0.2655,0.4333
10280,-0.8462,0.2689,0.432
10300,-0.8479,0.2673,0.4309
10320,-0.8477,0.2661,0.431
10340,-0.8501,0.2678,0.4297
10360,-0.8456,0.2717,0.4337
10380,-0.8481,0.2671,0.4303
10400,-0.8495,0.2673,0.4314
10420,-0.8479,0.2661,0.4302
10440,-0.847,0.2664,0.4316
10460,-0.8473,0.267,0.431
10480,-0.8479,0.2671,0.4321
10500,-0.8489,0.2667,0.4303
10520,-0.8481,0.2692,0.4281
10540,-0.8507,0.2673,0.4287
10560,-0.8477,0.2672,0.4291
10580,-0.8481,0.2699,0.4318
10600,-0.8492,0.2668,0.4288
10620,-0.8479,0.2684,0.4294
10640,-0.8479,0.2686,0.4275
10660,-0.8518,0.2676,0.4261
10680,-0.8488,0.27,0.4272
10700,-0.8494,0.2682,0.4266
10720,-0.8486,0.2683,0.4275
10740,-0.8495,0.2689,0.4269
10760,-0.851,0.2697,0.4264
10780,-0.8499,0.2693,0.4264
10800,-0.8517,0.2687,0.4263
10820,-0.8491,0.2697,0.4271
10840,-0.8516,0.2683,0.4264
10860,-0.8503,0.2686,0.4257
10880,-0.849,0.2692,0.4259
10900,-0.8486,0.2704,0.426
10920,-0.8486,0.2693,0.4274
10940,-0.8499,0.2679,0.4254
10960,-0.8503,0.2699,0.425
10980,-0.8495,0.2695,0.4243
11000,-0.8508,0.2682,0.4264
11020,-0.8494,0.2705,0.4244
11040,-0.8492,0.2701,0.4268
11060,-0.8517,0.2688,0.4254
11080,-0.8511,0.2701,0.4242
11100,-0.8496,0.2694,0.4204
11120,-0.854,0.269,0.4253
11140,-0.847,0.2712,0.4276
11160,-0.8485,0.2683,0.426
11180,-0.8496,0.2683,0.4252
11200,-0.851,0.2712,0.424
11220,-0.8522,0.2699,0.4231
11240,-0.8505,0.2708,0.4221
11260,-0.8525,0.2706,0.4238
11280,-0.8508,0.2726,0.4236
11300,-0.8505,0.271,0.4232
11320,-0.8518,0.2717,0.4225
11340,-0.85,0.2717,0.4232
11360,-0.8484,0.2728,0.4248
11380,-0.8492,0.2716,0.4233
11400,-0.8513,0.2716,0.4233
11420,-0.8505,0.2722,0.4248
11440,-0.8514,0.2723,0.4233
11460,-0.8508,0.2709,0.4229
11480,-0.8516,0.2704,0.4247
11500,-0.8481,0.2738,0.428
11520,-0.8519,0.2706,0.4224
11540,-0.8517,0.2708,0.4231
11560,-0.8507,0.2715,0.4227
11580,-0.8501,0.2706,0.4243
11600,-0.8495,0.2721,0.4233
11620,-0.8499,0.2719,0.425
11640,-0.8502,0.2717,0.4232
11660,-0.8524,0.2719,0.4219
11680,-0.8527,0.2706,0.423
11700,-0.85,0.2719,0.4215
11720,-0.8489,0.2743,0.4248
11740,-0.85,0.2712,0.4238
11760,-0.8521,0.2687,0.423
11780,-0.8481,0.2732,0.4219
11800,-0.8536,0.2719,0.4207
11820,-0.8512,0.2731,0.422
11840,-0.8497,0.2712,0.4233
11860,-0.8501,0.2708,0.4247
11880,-0.8502,0.2715,0.4226
11900,-0.853,0.2712,0.4233
11920,-0.851,0.2715,0.4221
11940,-0.8527,0.2705,0.4235
11960,-0.8486,0.2719,0.423
11980,-0.853,0.2715,0.4233
12000,-0.8511,0.2714,0.4225
12020,-0.8507,0.2729,0.4225
12040,-0.8494,0.2721,0.4233
12060,-0.8485,0.2693,0.4257
12080,-0.8499,0.2708,0.4236
12100,-0.8524,0.2725,0.4236
12120,-0.8494,0.2721,0.422
12140,-0.8533,0.2719,0.424
12160,-0.848,0.2715,0.4224
12180,-0.8499,0.2705,0.4265
12200,-0.8503,0.2695,0.4236
12220,-0.8508,0.2714,0.4254
12240,-0.8501,0.2717,0.4242
12260,-0.8521,0.2723,0.4216
12280,-0.8507,0.2727,0.425
12300,-0.8485,0.2704,0.4272
12320,-0.8496,0.2706,0.425
12340,-0.8499,0.2705,0.4253
12360,-0.8499,0.2717,0.4246
12380,-0.85,0.2709,0.4232
12400,-0.8522,0.2705,0.4266
12420,-0.8469,0.2711,0.4274
12440,-0.8503,0.2683,0.4268
12460,-0.8495,0.2686,0.4269
12480,-0.8489,0.2708,0.4277
12500,-0.847,0.2708,0.4272
12520,-0.8472,0.2704,0.4291
12540,-0.8477,0.2686,0.4304
12560,-0.8485,0.2705,0.4307
12580,-0.8475,0.2699,0.4281
12600,-0.8486,0.2683,0.4292
12620,-0.8483,0.2701,0.4293
12640,-0.8458,0.2706,0.4337
12660,-0.8481,0.269,0.4275
12680,-0.8496,0.2682,0.4294
12700,-0.8468,0.2704,0.4275
12720,-0.8483,0.2689,0.4282
12740,-0.8474,0.2704,0.4279
12760,-0.8464,0.27,0.4287
12780,-0.8506,0.2697,0.4283
12800,-0.8484,0.2692,0.427
12820,-0.8505,0.2689,0.4287
12840,-0.8478,0.2694,0.427
12860,-0.8505,0.2717,0.4283
12880,-0.8495,0.2693,0.4258
12900,-0.8492,0.2683,0.4275
12920,-0.8494,0.2709,0.4257
12940,-0.8503,0.2706,0.425
12960,-0.8484,0.2715,0.4266
12980,-0.8485,0.2698,0.4272
13000,-0.8483,0.2692,0.4281
13020,-0.8485,0.271,0.4264
13040,-0.8518,0.2698,0.4243
13060,-0.85,0.27,0.4257
13080,-0.8501,0.27,0.427
13100,-0.8489,0.27,0.426
13120,-0.8507,0.269,0.4246
13140,-0.8506,0.2703,0.425
13160,-0.8507,0.2693,0.4246
13180,-0.8503,0.2703,0.4243
13200,-0.851,0.2705,0.424
13220,-0.85,0.2701,0.4232
13240,-0.8503,0.2698,0.4247
13260,-0.85,0.2701,0.4225
13280,-0.8528,0.2689,0.4241
13300,-0.848,0.27,0.4241
13320,-0.8489,0.2711,0.4264
13340,-0.8519,0.2686,0.4232
13360,-0.8514,0.2682,0.4252
13380,-0.8492,0.2711,0.4244
13400,-0.8496,0.2717,0.4255
13420,-0.8501,0.2693,0.4268
13440,-0.8492,0.2687,0.4253
13460,-0.851,0.2686,0.4252
13480,-0.8502,0.2692,0.4266
13500,-0.85,0.2694,0.427
13520,-0.848,0.27,0.4246
13540,-0.8519,0.2695,0.4268
13560,-0.8477,0.2692,0.4274
13580,-0.8513,0.2687,0.4266
13600,-0.8489,0.2681,0.427
13620,-0.8503,0.2703,0.427
13640,-0.8483,0.2693,0.4296
13660,-0.8463,0.2684,0.4296
13680,-0.8475,0.2686,0.4297
13700,-0.8481,0.2693,0.4299
13720,-0.8499,0.2682,0.4275
13740,-0.8491,0.2679,0.4297
13760,-0.847,0.2681,0.4296
13780,-0.8456,0.2698,0.4335
13800,-0.8492,0.2678,0.4281
13820,-0.8489,0.2677,0.4293
13840,-0.8484,0.2688,0.4269
13860,-0.8484,0.2693,0.4271
13880,-0.848,0.2675,0.4307
13900,-0.8461,0.2681,0.4302
13920,-0.8484,0.271,0.4272
13940,-0.8497,0.269,0.4254
13960,-0.8533,0.2672,0.4271
13980,-0.8474,0.2677,0.4261
14000,-0.849,0.27,0.4281
14020,-0.8512,0.2694,0.4243
14040,-0.8507,0.269,0.4261
14060,-0.8497,0.2697,0.4237
14080,-0.8501,0.2668,0.4268
14100,-0.8489,0.2709,0.4272
14120,-0.8502,0.2708,0.4255
14140,-0.8506,0.2699,0.4255
14160,-0.8511,0.2694,0.4248
14180,-0.8511,0.27,0.4236
14200,-0.8502,0.2694,0.4253
14220,-0.8511,0.2693,0.427
14240,-0.847,0.2699,0.4271
14260,-0.8503,0.2679,0.4258
14280,-0.8502,0.2682,0.4247
14300,-0.8495,0.2709,0.4253
14320,-0.8492,0.2701,0.4264
14340,-0.849,0.2697,0.4266
14360,-0.8499,0.2704,0.4242
14380,-0.8514,0.2698,0.4243
14400,-0.8495,0.2711,0.4238
14420,-0.8519,0.2681,0.4253
14440,-0.8492,0.2694,0.4236
14460,-0.8494,0.272,0.4261
14480,-0.8524,0.2708,0.4241
14500,-0.853,0.2679,0.4216
14520,-0.8507,0.271,0.4249
14540,-0.8512,0.2705,0.4229
14560,-0.8481,0.2714,0.4258
14580,-0.8484,0.2714,0.4258
14600,-0.8501,0.2692,0.4243
14620,-0.8506,0.2692,0.4258
14640,-0.8497,0.2693,0.4241
14660,-0.8513,0.2699,0.4257
14680,-0.8506,0.2679,0.4277
14700,-0.847,0.2703,0.4307
14720,-0.8497,0.2661,0.4281
14740,-0.8489,0.2682,0.428
14760,-0.8485,0.2699,0.4269
14780,-0.8485,0.2688,0.4299
14800,-0.8477,0.2682,0.4303
14820,-0.8474,0.2679,0.4301
14840,-0.8478,0.2672,0.4319
14860,-0.8474,0.2687,0.4297
14880,-0.8496,0.2681,0.4297
14900,-0.8485,0.2681,0.4301
14920,-0.8479,0.2694,0.4309
14940,-0.8488,0.2694,0.4274
14960,-0.849,0.267,0.429
14980,-0.8472,0.2698,0.4298
15000,-0.8494,0.2679,0.4283
15020,-0.8491,0.2688,0.4276
15040,-0.8474,0.2687,0.4297
15060,-0.8501,0.2694,0.4277
15080,-0.8488,0.2694,0.4269
15100,-0.8496,0.2666,0.427
15120,-0.8479,0.2681,0.4277
15140,-0.8514,0.2692,0.4275
15160,-0.8501,0.2699,0.4265
15180,-0.8477,0.266,0.4275
15200,-0.8474,0.2683,0.4291
15220,-0.8492,0.2681,0.4248
15240,-0.8477,0.2708,0.4252
15260,-0.8522,0.2673,0.4231
15280,-0.8492,0.2673,0.4241
15300,-0.8506,0.2699,0.4269
15320,-0.8501,0.2705,0.4226
15340,-0.8528,0.2698,0.4229
15360,-0.848,0.2662,0.4269
15380,-0.85,0.2709,0.4285
15400,-0.8511,0.2682,0.4231
15420,-0.8506,0.2694,0.4252
15440,-0.8491,0.2679,0.4268
15460,-0.8496,0.2688,0.4276
15480,-0.8451,0.2701,0.4292
15500,-0.8481,0.269,0.4276
15520,-0.8525,0.2705,0.4242
15540,-0.8525,0.2686,0.4244
15560,-0.8506,0.2687,0.4266
15580,-0.8484,0.2692,0.4254
15600,-0.8507,0.2649,0.4314
15620,-0.8431,0.2723,0.4264
15640,-0.8534,0.2684,0.4309
15660,-0.8521,0.2662,0.4305
15680,-0.8468,0.2667,0.4286
15700,-0.8561,0.2677,0.4293
15720,-0.843,0.2722,0.4404
15740,-0.8281,0.2633,0.4532
15760,-0.8373,0.2499,0.4635
15780,-0.8152,0.2288,0.475
15800,-0.827,0.2336,0.4691
15820,-0.8276,0.2451,0.4802
15840,-0.8131,0.2372,0.488
15860,-0.8674,0.141,0.5663
15880,-0.7998,0.1088,0.5713
15900,-0.7872,0.1414,0.6235
15920,-0.7947,0.1067,0.5833
15940,-0.7413,0.1309,0.6049
15960,-0.7434,0.0526,0.6774
15980,-0.7094,0.0588,0.6533
16000,-0.6761,-0.0033,0.723
16020,-0.8176,0.0537,0.7863
16040,-0.7523,0.0286,0.662
16060,-0.7383,-0.1013,0.73
16080,-0.755,-0.093,0.713
16100,-0.7744,-0.1085,0.6891
16120,-0.7375,-0.1608,0.6512
16140,-0.6494,-0.2177,0.546
16160,-0.7057,-0.2,0.6066
16180,-0.8057,-0.2015,0.603
16200,-0.767,-0.2834,0.5752
16220,-0.7743,-0.3345,0.5845
16240,-0.7877,-0.3148,0.5481
16260,-0.7712,-0.3269,0.4856
16280,-0.7703,-0.3673,0.41
16300,-0.7739,-0.4156,0.3738
16320,-0.7543,-0.4169,0.3347
16340,-0.7466,-0.5206,0.3539
16360,-0.6744,-0.4197,0.3503
16380,-0.7294,-0.4073,0.3289
16400,-0.7555,-0.4996,0.3499
16420,-0.7837,-0.4663,0.3192
16440,-0.7335,-0.4756,0.2791
16460,-0.8169,-0.3911,0.2391
16480,-0.8453,-0.4586,0.2457
16500,-0.7529,-0.5298,0.2655
16520,-0.8105,-0.5327,0.2502
16540,-0.786,-0.4965,0.2246
16560,-0.8265,-0.516,0.2694
16580,-0.8,-0.5392,0.1781
16600,-0.8633,-0.4816,0.2211
16620,-0.8408,-0.4526,0.2539
16640,-0.8785,-0.415,0.2666
16660,-0.8483,-0.4413,0.2683
16680,-0.8519,-0.4468,0.2358
16700,-0.8292,-0.5129,0.2479
16720,-0.8127,-0.5001,0.2416
16740,-0.819,-0.494,0.2468
16760,-0.8313,-0.4941,0.2487
16780,-0.8257,-0.475,0.2478
16800,-0.8258,-0.4891,0.2543
16820,-0.8361,-0.4551,0.2606
16840,-0.8247,-0.4731,0.2684
16860,-0.8237,-0.4774,0.2844
16880,-0.8304,-0.4576,0.286
16900,-0.8206,-0.4717,0.275
16920,-0.8273,-0.4673,0.2816
16940,-0.8224,-0.4691,0.2905
16960,-0.8212,-0.4653,0.2789
16980,-0.8483,-0.4224,0.2931
17000,-0.8445,-0.4353,0.2853
17020,-0.8062,-0.4948,0.2698
17040,-0.8252,-0.485,0.2511
17060,-0.9465,-0.5157,0.3369
17080,-0.8002,-0.4679,0.2938
17100,-0.8265,-0.4456,0.3092
17120,-0.8252,-0.4409,0.3066
17140,-0.7949,-0.4932,0.2859
17160,-0.7922,-0.5256,0.2687
17180,-0.8103,-0.5082,0.249
17200,-0.7931,-0.5914,0.2284
17220,-0.7961,-0.5852,0.2484
17240,-0.8066,-0.528,0.2328
17260,-0.8259,-0.5007,0.2561
17280,-0.8315,-0.4585,0.2706
17300,-0.828,-0.4612,0.2738
17320,-0.8237,-0.475,0.2719
17340,-0.8104,-0.4802,0.2719
17360,-0.8143,-0.4941,0.2816
17380,-0.8119,-0.4893,0.2716
17400,-0.825,-0.4673,0.2786
17420,-0.8256,-0.4507,0.2621
17440,-0.8109,-0.501,0.3135
17460,-0.8101,-0.4731,0.3361
17480,-0.7968,-0.4736,0.3398
17500,-0.7815,-0.472,0.3582
17520,-0.8101,-0.417,0.3695
17540,-0.8396,-0.4108,0.3829
17560,-0.8077,-0.4032,0.374
17580,-0.7927,-0.4408,0.3516
17600,-0.795,-0.4883,0.3562
17620,-0.7988,-0.4873,0.3381
17640,-0.7994,-0.4781,0.3333
17660,-0.7957,-0.4539,0.339
17680,-0.798,-0.4751,0.3486
17700,-0.7914,-0.4824,0.3717
17720,-0.8052,-0.4781,0.3656
17740,-0.7849,-0.4727,0.3483
17760,-0.7732,-0.5122,0.3617
17780,-0.7872,-0.48,0.3619
17800,-0.8091,-0.3867,0.3695
17820,-0.8444,-0.3436,0.3705
17840,-0.8267,-0.3755,0.3595
17860,-0.8069,-0.4419,0.368
17880,-0.7543,-0.5509,0.326
17900,-0.7738,-0.5388,0.3372
17920,-0.8083,-0.4629,0.3232
17940,-0.809,-0.4734,0.3214
17960,-0.7881,-0.5146,0.3223
17980,-0.8021,-0.4797,0.3248
18000,-0.8239,-0.4467,0.3116
18020,-0.8123,-0.481,0.3202
18040,-0.7966,-0.4845,0.3201
18060,-0.825,-0.4484,0.3218
18080,-0.8217,-0.4323,0.3314
18100,-0.8057,-0.464,0.3385
18120,-0.7965,-0.4821,0.3361
18140,-0.8046,-0.4686,0.3273
18160,-0.8008,-0.4763,0.3245
18180,-0.8016,-0.4932,0.3146
18200,-0.8008,-0.4896,0.3142
18220,-0.8097,-0.4847,0.3075
18240,-0.8016,-0.4948,0.3016
18260,-0.8046,-0.4905,0.3085
18280,-0.8157,-0.4713,0.3013
18300,-0.8251,-0.4404,0.3048
18320,-0.8137,-0.4642,0.3105
18340,-0.8131,-0.4647,0.3119
18360,-0.8215,-0.4525,0.3051
18380,-0.8137,-0.4701,0.3052
18400,-0.7986,-0.5024,0.3101
18420,-0.7979,-0.5051,0.3071
18440,-0.7994,-0.4973,0.3179
18460,-0.8077,-0.4713,0.3154
18480,-0.807,-0.4673,0.3169
18500,-0.7924,-0.5002,0.3252
18520,-0.8069,-0.4619,0.3239
18540,-0.8214,-0.4307,0.3171
18560,-0.8207,-0.4485,0.3228
18580,-0.8037,-0.4725,0.3105
18600,-0.8007,-0.5006,0.3126
18620,-0.7991,-0.5007,0.3101
18640,-0.8005,-0.5006,0.3105
18660,-0.8096,-0.4794,0.3115
18680,-0.8198,-0.4684,0.3075
18700,-0.8223,-0.4626,0.3137
18720,-0.8068,-0.478,0.3135
18740,-0.8076,-0.47,0.3193
18760,-0.8055,-0.4697,0.3225
18780,-0.8051,-0.4626,0.3273
18800,-0.8048,-0.4651,0.332
18820,-0.7987,-0.4788,0.3336
18840,-0.7982,-0.4812,0.3298
18860,-0.7965,-0.4817,0.3298
18880,-0.8059,-0.4592,0.3326
18900,-0.8087,-0.46,0.3275
18920,-0.8076,-0.4647,0.3318
18940,-0.8134,-0.4391,0.3245
18960,-0.8202,-0.4557,0.3175
18980,-0.8123,-0.4607,0.3152
19000,-0.8131,-0.4667,0.3104
19020,-0.8152,-0.4773,0.3107
19040,-0.8129,-0.4703,0.3098
19060,-0.8096,-0.4784,0.3066
19080,-0.8188,-0.4832,0.3157
19100,-0.8053,-0.4841,0.3204
19120,-0.8003,-0.4834,0.3179
19140,-0.8016,-0.4872,0.3257
19160,-0.8044,-0.4653,0.3322
19180,-0.8043,-0.4548,0.3328
19200,-0.8033,-0.4633,0.3328
19220,-0.7985,-0.4723,0.3344
19240,-0.8016,-0.474,0.3317
19260,-0.803,-0.475,0.3297
19280,-0.7994,-0.4762,0.3284
19300,-0.8029,-0.4805,0.3284
19320,-0.7983,-0.4855,0.3274
19340,-0.7952,-0.4871,0.329
19360,-0.8008,-0.4779,0.3325
19380,-0.817,-0.4486,0.3225
19400,-0.8151,-0.4436,0.321
19420,-0.8018,-0.4855,0.3195
19440,-0.7972,-0.4991,0.3129
19460,-0.8074,-0.4877,0.3143
19480,-0.8101,-0.483,0.3029
19500,-0.8154,-0.4962,0.3066
19520,-0.8214,-0.4637,0.2974
19540,-0.8116,-0.4835,0.2975
19560,-0.7993,-0.498,0.3093
19580,-0.7996,-0.4701,0.3209
19600,-0.8052,-0.4684,0.3093
19620,-0.807,-0.4695,0.325
19640,-0.8085,-0.4648,0.3234
19660,-0.812,-0.4576,0.3173
19680,-0.7998,-0.4843,0.3206
19700,-0.7986,-0.496,0.3119
19720,-0.7725,-0.5217,0.3187
19740,-0.7867,-0.4847,0.3412
19760,-0.8389,-0.4116,0.3418
19780,-0.8309,-0.4349,0.3362
19800,-0.7869,-0.4823,0.3459
19820,-0.7798,-0.488,0.3444
19840,-0.8173,-0.4832,0.3042
19860,-0.7692,-0.5363,0.2896
19880,-0.7334,-0.5417,0.3136
19900,-0.7877,-0.5104,0.3132
19920,-0.7955,-0.5094,0.3239
19940,-0.8204,-0.4509,0.3491
19960,-0.7549,-0.547,0.3167
19980,-0.7648,-0.4976,0.3784
20000,-0.8226,-0.4474,0.3533
20020,-0.791,-0.4725,0.3591
20040,-0.7787,-0.4878,0.3865
20060,-0.7854,-0.484,0.3634
20080,-0.7795,-0.5005,0.3571
20100,-0.7698,-0.4894,0.3447
20120,-0.7877,-0.4594,0.3777
20140,-0.7896,-0.4537,0.389
20160,-0.8033,-0.4485,0.3677
20180,-0.8135,-0.4271,0.3667
20200,-0.8096,-0.4434,0.3511
20220,-0.8129,-0.4435,0.3433
20240,-0.8427,-0.4341,0.3029
20260,-0.8085,-0.4534,0.2919
20280,-0.8312,-0.4574,0.2596
20300,-0.8324,-0.4722,0.2319
20320,-0.8192,-0.4841,0.2244
20340,-0.8085,-0.5138,0.2216
20360,-0.8162,-0.5164,0.2517
20380,-0.8014,-0.5461,0.2722
20400,-0.8054,-0.54,0.2666
20420,-0.8016,-0.511,0.3062
20440,-0.7811,-0.5463,0.2964
20460,-0.7827,-0.5289,0.3171
20480,-0.7806,-0.5184,0.2893
20500,-0.7892,-0.5159,0.3148
20520,-0.8314,-0.4603,0.304
20540,-0.8024,-0.465,0.3334
20560,-0.781,-0.4695,0.3561
20580,-0.7743,-0.4827,0.3672
20600,-0.755,-0.5088,0.3949
20620,-0.7292,-0.4933,0.4209
20640,-0.7493,-0.4871,0.4167
20660,-0.7406,-0.519,0.4366
20680,-0.7104,-0.5203,0.4445
20700,-0.7078,-0.5457,0.4403
20720,-0.7003,-0.5927,0.4572
20740,-0.7383,-0.5547,0.4432
20760,-0.7771,-0.4801,0.3689
20780,-0.7906,-0.42,0.3715
20800,-0.8391,-0.3364,0.4258
20820,-1.0094,-0.2483,0.3749
20840,-0.828,-0.3733,0.3617
20860,-0.7578,-0.4329,0.3704
20880,-0.8518,-0.3921,0.3759
20900,-0.8491,-0.3787,0.343
20920,-0.8405,-0.3711,0.3538
20940,-0.8083,-0.4401,0.3257
20960,-0.795,-0.4385,0.3267
20980,-0.8241,-0.4668,0.2992
21000,-0.7831,-0.5079,0.337
21020,-0.7284,-0.5524,0.3486
21040,-0.7004,-0.6124,0.3971
21060,-0.683,-0.6235,0.4099
21080,-0.7032,-0.5762,0.4199
21100,-0.7531,-0.5011,0.4004
21120,-0.7897,-0.4592,0.3866
21140,-0.7507,-0.5044,0.395
21160,-0.7701,-0.4781,0.3846
21180,-0.7971,-0.4601,0.3845
21200,-0.7927,-0.4634,0.3802
21220,-0.7545,-0.4762,0.4232
21240,-0.8167,-0.4442,0.4178
21260,-0.8719,-0.3325,0.3617
21280,-0.8741,-0.2928,0.3621
21300,-0.8854,-0.2869,0.36
21320,-0.8567,-0.3591,0.3562
21340,-0.8141,-0.4039,0.3829
21360,-0.8087,-0.4052,0.37
21380,-0.8348,-0.3761,0.3539
21400,-0.8322,-0.3889,0.364
21420,-0.8262,-0.3867,0.3635
21440,-0.8312,-0.3877,0.3413
21460,-0.7784,-0.4885,0.3164
21480,-0.735,-0.5662,0.343
21500,-0.7281,-0.6058,0.3518
21520,-0.7501,-0.5559,0.3387
21540,-0.7949,-0.4832,0.3511
21560,-0.8151,-0.4563,0.3267
21580,-0.8158,-0.4354,0.3169
21600,-0.8357,-0.4462,0.3014
21620,-0.8025,-0.4695,0.3184
21640,-0.8271,-0.446,0.3151
21660,-0.8002,-0.4996,0.3243
21680,-0.7408,-0.5137,0.3536
21700,-0.8655,-0.4352,0.3013
21720,-0.8407,-0.4685,0.3109
21740,-0.7493,-0.521,0.3324
21760,-0.77,-0.5302,0.3691
21780,-0.7465,-0.5387,0.3844
21800,-0.729,-0.5261,0.3612
21820,-0.7209,-0.5255,0.379
21840,-0.7412,-0.5309,0.382
21860,-0.7123,-0.5703,0.4135
21880,-0.7113,-0.5331,0.3495
21900,-0.7518,-0.5203,0.3634
21920,-0.7505,-0.5295,0.3212
21940,-0.7456,-0.5514,0.3652
21960,-0.7975,-0.5096,0.3287
21980,-0.8427,-0.4453,0.3774
22000,-0.8434,-0.4143,0.3574
22020,-0.8893,-0.3779,0.3884
22040,-0.8167,-0.4409,0.3586
22060,-0.7637,-0.4631,0.3889
22080,-0.807,-0.4268,0.3866
22100,-0.8064,-0.4292,0.3357
22120,-0.7554,-0.4668,0.3225
22140,-0.807,-0.469,0.3363
22160,-0.8268,-0.4484,0.313
22180,-0.7683,-0.4791,0.2855
22200,-0.7858,-0.5325,0.3226
22220,-0.777,-0.543,0.2924
22240,-0.7573,-0.557,0.319
22260,-0.7754,-0.4926,0.3204
22280,-0.8118,-0.4397,0.3729
22300,-0.8333,-0.3936,0.3668
22320,-0.8273,-0.3755,0.3538
22340,-0.8448,-0.3695,0.366
22360,-0.8212,-0.4031,0.3706
22380,-0.8057,-0.4481,0.3508
22400,-0.791,-0.4749,0.3409
22420,-0.8004,-0.4755,0.3356
22440,-0.8011,-0.4635,0.3405
22460,-0.7971,-0.4563,0.3376
22480,-0.8066,-0.4427,0.335
22500,-0.813,-0.4458,0.342
22520,-0.8226,-0.4454,0.3392
22540,-0.8169,-0.4331,0.3403
22560,-0.808,-0.4772,0.3322
22580,-0.8134,-0.4563,0.3335
22600,-0.8083,-0.4741,0.3334
22620,-0.7786,-0.5188,0.3224
22640,-0.7986,-0.5117,0.3127
22660,-0.7909,-0.524,0.3082
22680,-0.803,-0.5006,0.3091
22700,-0.7996,-0.5024,0.3159
22720,-0.799,-0.4883,0.3175
22740,-0.8086,-0.4724,0.3225
22760,-0.8008,-0.469,0.3291
22780,-0.8109,-0.4467,0.3259
22800,-0.8125,-0.4415,0.3431
22820,-0.8186,-0.4391,0.3348
22840,-0.8102,-0.4534,0.3367
22860,-0.7983,-0.473,0.3418
22880,-0.7988,-0.4724,0.3362
22900,-0.7981,-0.465,0.348
22920,-0.8099,-0.4448,0.3513
22940,-0.8063,-0.4487,0.3641
22960,-0.8054,-0.4431,0.3706
22980,-0.7864,-0.467,0.368
23000,-0.786,-0.4742,0.3765
23020,-0.777,-0.4756,0.3806
23040,-0.7734,-0.4803,0.375
23060,-0.7839,-0.4756,0.3768
23080,-0.785,-0.459,0.3774
23100,-0.7885,-0.4542,0.379
23120,-0.7872,-0.4587,0.3772
23140,-0.7843,-0.4563,0.3876
23160,-0.7855,-0.4572,0.3829
23180,-0.7875,-0.4595,0.3805
23200,-0.7865,-0.4547,0.3795
23220,-0.7877,-0.4586,0.3796
23240,-0.7933,-0.4536,0.3733
23260,-0.7938,-0.4518,0.369
23280,-0.7966,-0.4476,0.3743
23300,-0.7927,-0.4584,0.371
23320,-0.7878,-0.4633,0.3713
23340,-0.7885,-0.4657,0.3644
23360,-0.7936,-0.4687,0.3594
23380,-0.7926,-0.4681,0.3594
23400,-0.7922,-0.4661,0.3573
23420,-0.7939,-0.4713,0.3612
23440,-0.7844,-0.4823,0.3589
23460,-0.787,-0.4749,0.3601
23480,-0.7977,-0.4667,0.3575
23500,-0.7935,-0.4642,0.3602
23520,-0.7938,-0.4678,0.3595
23540,-0.7946,-0.4613,0.3584
23560,-0.7942,-0.465,0.359
23580,-0.7958,-0.4612,0.3632
23600,-0.7975,-0.4563,0.3582
23620,-0.7933,-0.4607,0.3635
23640,-0.7892,-0.467,0.366
23660,-0.7954,-0.4562,0.3651
23680,-0.792,-0.4626,0.3638
23700,-0.795,-0.4628,0.3605
23720,-0.7905,-0.4696,0.3619
23740,-0.7883,-0.4729,0.3621
23760,-0.7926,-0.4658,0.3604
23780,-0.7958,-0.4598,0.368
23800,-0.7968,-0.4622,0.3623
23820,-0.7924,-0.4598,0.3623
23840,-0.7981,-0.4583,0.361
23860,-0.7992,-0.453,0.36
23880,-0.7894,-0.4646,0.361
23900,-0.7927,-0.4647,0.3604
23920,-0.7909,-0.4701,0.3586
23940,-0.7891,-0.4727,0.3533
23960,-0.7937,-0.4749,0.3518
23980,-0.801,-0.4603,0.3511
24000,-0.7961,-0.4656,0.3518
24020,-0.806,-0.4557,0.3524
24040,-0.8068,-0.444,0.3492
24060,-0.8027,-0.4551,0.3538
24080,-0.7935,-0.467,0.3547
24100,-0.7931,-0.47,0.3558
24120,-0.7991,-0.4583,0.3535
24140,-0.8049,-0.4554,0.3507
24160,-0.804,-0.4573,0.3434
24180,-0.8049,-0.4552,0.3442
24200,-0.8062,-0.4545,0.3422
24220,-0.8114,-0.4443,0.3453
24240,-0.8085,-0.4581,0.3563
24260,-0.8025,-0.4513,0.342
24280,-0.8026,-0.4681,0.3489
24300,-0.8,-0.4631,0.347
24320,-0.8019,-0.455,0.348
24340,-0.8018,-0.4585,0.3538
24360,-0.8,-0.4611,0.3522
24380,-0.7902,-0.4684,0.3563
24400,-0.7991,-0.4572,0.3577
24420,-0.7969,-0.4597,0.3618
24440,-0.7986,-0.451,0.3651
24460,-0.7994,-0.447,0.3641
24480,-0.7936,-0.4542,0.3676
24500,-0.7965,-0.4534,0.3655
24520,-0.7961,-0.4535,0.3645
24540,-0.803,-0.4543,0.3599
24560,-0.7936,-0.4611,0.3621
24580,-0.8019,-0.4486,0.3639
24600,-0.7969,-0.4579,0.3604
24620,-0.7957,-0.4545,0.3583
24640,-0.8019,-0.454,0.359
24660,-0.7963,-0.4565,0.3606
24680,-0.7875,-0.4722,0.3629
24700,-0.797,-0.4619,0.3599
24720,-0.8037,-0.453,0.3551
24740,-0.7955,-0.459,0.3595
24760,-0.7931,-0.4624,0.3635
24780,-0.7947,-0.4664,0.3571
24800,-0.7869,-0.4709,0.3644
24820,-0.7946,-0.4545,0.3643
24840,-0.797,-0.4592,0.3668
24860,-0.7932,-0.4584,0.3623
24880,-0.8025,-0.4506,0.3623
24900,-0.8025,-0.4462,0.3597
24920,-0.7947,-0.4619,0.3607
24940,-0.792,-0.4613,0.3643
24960,-0.8021,-0.4572,0.3597
24980,-0.8021,-0.4546,0.361
25000,-0.7939,-0.4603,0.356
25020,-0.7974,-0.4652,0.3597
25040,-0.8043,-0.4536,0.3519
25060,-0.8085,-0.4513,0.3506
25080,-0.7997,-0.4583,0.3596
25100,-0.7992,-0.4678,0.3522
25120,-0.7998,-0.4572,0.3578
25140,-0.7944,-0.4583,0.3616
25160,-0.7931,-0.4575,0.3636
25180,-0.7952,-0.4547,0.3678
25200,-0.7916,-0.46,0.3685
25220,-0.7891,-0.4611,0.3719
25240,-0.79,-0.4568,0.3717
25260,-0.7926,-0.4589,0.3715
25280,-0.7867,-0.4609,0.3739
25300,-0.7889,-0.4611,0.3708
25320,-0.7896,-0.4619,0.375
