timestamp,ax,ay,az
0,-0.8092,-0.5293,0.2048
20,-0.8087,-0.5319,0.2329
40,-0.8074,-0.5083,0.2375
60,-0.8044,-0.5018,0.246
80,-0.8035,-0.5012,0.2559
100,-0.8026,-0.5022,0.2579
120,-0.8052,-0.5143,0.2662
140,-0.803,-0.5061,0.272
160,-0.8071,-0.5006,0.2615
180,-0.7985,-0.5176,0.2782
200,-0.7927,-0.484,0.2584
220,-0.8047,-0.501,0.2787
240,-0.8187,-0.5022,0.2834
260,-0.8199,-0.4863,0.2765
280,-0.812,-0.469,0.2524
300,-0.817,-0.4907,0.2605
320,-0.8331,-0.4244,0.2112
340,-0.8508,-0.4918,0.2122
360,-0.8488,-0.4639,0.1836
380,-0.8492,-0.4565,0.1571
400,-0.8506,-0.4752,0.1595
420,-0.8499,-0.4843,0.113
440,-0.8688,-0.4874,0.1201
460,-0.8721,-0.4523,0.092
480,-0.8671,-0.4606,0.0769
500,-0.864,-0.4637,0.0576
520,-0.8726,-0.4918,0.0444
540,-0.8781,-0.4919,0.04
560,-0.8785,-0.4883,0.0389
580,-0.8771,-0.4761,0.0365
600,-0.8827,-0.4868,0.0403
620,-0.8745,-0.4861,0.031
640,-0.8724,-0.4949,0.0424
660,-0.8719,-0.4723,0.0267
680,-0.8801,-0.483,0.0334
700,-0.8739,-0.479,0.0349
720,-0.879,-0.4744,0.05
740,-0.8788,-0.4927,0.0665
760,-0.8636,-0.4387,0.0458
780,-0.8608,-0.5258,0.0859
800,-0.8473,-0.5012,0.0891
820,-0.8457,-0.5105,0.0863
840,-0.8386,-0.5009,0.1001
860,-0.8364,-0.5205,0.1222
880,-0.8373,-0.5135,0.1351
900,-0.835,-0.5236,0.1562
920,-0.8237,-0.5176,0.1611
940,-0.825,-0.5195,0.176
960,-0.8218,-0.5265,0.1805
980,-0.8163,-0.5193,0.1957
1000,-0.8092,-0.5234,0.1937
1020,-0.8186,-0.5256,0.2192
1040,-0.8204,-0.504,0.2393
1060,-0.8159,-0.4878,0.2349
1080,-0.8163,-0.5117,0.2437
1100,-0.8037,-0.5046,0.2361
1120,-0.8069,-0.5081,0.23
1140,-0.8087,-0.51,0.2211
1160,-0.8082,-0.5291,0.233
1180,-0.8169,-0.5237,0.2384
1200,-0.8063,-0.4996,0.2249
1220,-0.8098,-0.5292,0.2307
1240,-0.8083,-0.5065,0.2002
1260,-0.8212,-0.5176,0.1979
1280,-0.8247,-0.5181,0.1924
1300,-0.8313,-0.5007,0.1882
1320,-0.8352,-0.4978,0.1727
1340,-0.8394,-0.5051,0.1609
1360,-0.8381,-0.5082,0.1442
1380,-0.8373,-0.5045,0.1268
1400,-0.8275,-0.5059,0.0894
1420,-0.8351,-0.5084,0.0929
1440,-0.8623,-0.5168,0.1014
1460,-0.8602,-0.5005,0.0869
1480,-0.8563,-0.4905,0.0808
1500,-0.8605,-0.488,0.0712
1520,-0.8682,-0.4954,0.0771
1540,-0.8701,-0.4805,0.0732
1560,-0.8699,-0.4729,0.0609
1580,-0.8672,-0.4761,0.0608
1600,-0.873,-0.4758,0.0577
1620,-0.8704,-0.4852,0.0636
1640,-0.8707,-0.4774,0.0562
1660,-0.8723,-0.4792,0.0558
1680,-0.8783,-0.483,0.0536
1700,-0.8673,-0.4834,0.0496
1720,-0.8749,-0.4818,0.0623
1740,-0.8751,-0.4807,0.0806
1760,-0.8649,-0.4753,0.0808
1780,-0.8499,-0.5238,0.0876
1800,-0.844,-0.4889,0.0918
1820,-0.844,-0.5289,0.1117
1840,-0.839,-0.5046,0.1129
1860,-0.8303,-0.5305,0.1328
1880,-0.8276,-0.517,0.1426
1900,-0.8414,-0.5211,0.1692
1920,-0.8375,-0.5127,0.1736
1940,-0.8284,-0.5016,0.1798
1960,-0.8273,-0.4983,0.1899
1980,-0.8243,-0.4905,0.2014
2000,-0.8213,-0.4904,0.2059
2020,-0.825,-0.4871,0.215
2040,-0.8254,-0.4969,0.2058
2060,-0.8237,-0.51,0.2131
2080,-0.8188,-0.5226,0.2207
2100,-0.8243,-0.5038,0.2155
2120,-0.8114,-0.5127,0.2137
2140,-0.8196,-0.519,0.2163
2160,-0.8243,-0.5002,0.217
2180,-0.8281,-0.5333,0.2195
2200,-0.8252,-0.4889,0.2111
2220,-0.825,-0.4717,0.1931
2240,-0.8344,-0.4786,0.1752
2260,-0.8424,-0.4758,0.1628
2280,-0.8502,-0.4808,0.1713
2300,-0.8594,-0.4545,0.1615
2320,-0.8677,-0.4797,0.1656
2340,-0.8518,-0.4581,0.1305
2360,-0.8585,-0.4663,0.1113
2380,-0.8655,-0.4708,0.1163
2400,-0.8823,-0.4727,0.0997
2420,-0.8752,-0.4448,0.0812
2440,-0.8784,-0.4717,0.0778
2460,-0.8784,-0.4707,0.071
2480,-0.882,-0.4735,0.0654
2500,-0.8748,-0.4541,0.0541
2520,-0.8881,-0.4624,0.0657
2540,-0.8848,-0.4495,0.0642
2560,-0.8865,-0.4548,0.0587
2580,-0.8828,-0.4609,0.0659
2600,-0.8901,-0.4438,0.0587
2620,-0.8839,-0.4761,0.0682
2640,-0.8696,-0.446,0.0562
2660,-0.8685,-0.4873,0.0598
2680,-0.8678,-0.4775,0.0618
2700,-0.8655,-0.4879,0.0732
2720,-0.8639,-0.5007,0.0912
2740,-0.8514,-0.4807,0.0876
2760,-0.8517,-0.4949,0.0983
2780,-0.8458,-0.5179,0.1151
2800,-0.84,-0.4954,0.1162
2820,-0.8385,-0.5311,0.137
2840,-0.8274,-0.5337,0.1499
2860,-0.8184,-0.5454,0.1588
2880,-0.8156,-0.532,0.171
2900,-0.8134,-0.5374,0.1765
2920,-0.8173,-0.5432,0.1912
2940,-0.8184,-0.5334,0.2018
2960,-0.8169,-0.517,0.2214
2980,-0.8209,-0.5045,0.2263
3000,-0.8175,-0.4952,0.2273
3020,-0.8236,-0.5006,0.2321
3040,-0.819,-0.4847,0.2288
3060,-0.8212,-0.5162,0.2422
3080,-0.8142,-0.4943,0.2279
3100,-0.8156,-0.4961,0.2261
3120,-0.8169,-0.4963,0.2213
3140,-0.8208,-0.496,0.2177
3160,-0.8306,-0.4913,0.213
3180,-0.8392,-0.4783,0.2019
3200,-0.8475,-0.5172,0.2189
3220,-0.8495,-0.4603,0.2007
3240,-0.8409,-0.4744,0.1852
3260,-0.8413,-0.4922,0.1702
3280,-0.8409,-0.4722,0.1394
3300,-0.853,-0.4929,0.1387
3320,-0.8541,-0.4827,0.1404
3340,-0.8584,-0.4857,0.1365
3360,-0.8557,-0.4554,0.1255
3380,-0.8728,-0.4795,0.1356
3400,-0.8717,-0.4573,0.1052
3420,-0.8832,-0.4595,0.1165
3440,-0.8805,-0.4421,0.1136
3460,-0.8832,-0.4519,0.1216
3480,-0.8892,-0.4323,0.1158
3500,-0.8893,-0.4462,0.1268
3520,-0.8768,-0.426,0.1249
3540,-0.8795,-0.4342,0.1152
3560,-0.8849,-0.4434,0.1183
3580,-0.8763,-0.4552,0.1166
3600,-0.8741,-0.439,0.1119
3620,-0.8823,-0.4515,0.1206
3640,-0.8776,-0.4432,0.1187
3660,-0.871,-0.4534,0.1147
3680,-0.8688,-0.4617,0.1215
3700,-0.8719,-0.4449,0.114
3720,-0.8779,-0.4659,0.1229
3740,-0.8826,-0.4236,0.1127
3760,-0.8726,-0.46,0.11
3780,-0.8826,-0.453,0.1095
3800,-0.8658,-0.5001,0.1016
3820,-0.8591,-0.4661,0.1
3840,-0.848,-0.5103,0.1107
3860,-0.8447,-0.4808,0.1082
3880,-0.8497,-0.5201,0.1067
3900,-0.8522,-0.5033,0.1151
3920,-0.8364,-0.5405,0.1292
3940,-0.8389,-0.54,0.1554
3960,-0.8398,-0.5123,0.166
3980,-0.8259,-0.5341,0.1638
4000,-0.8208,-0.5314,0.1708
4020,-0.8201,-0.5217,0.1772
4040,-0.812,-0.5315,0.1831
4060,-0.8164,-0.5221,0.1979
4080,-0.8201,-0.5079,0.204
4100,-0.8164,-0.5092,0.2115
4120,-0.8152,-0.5104,0.2108
4140,-0.8213,-0.5076,0.2152
4160,-0.8248,-0.5106,0.2218
4180,-0.8195,-0.5132,0.2114
4200,-0.8221,-0.5284,0.2236
4220,-0.8242,-0.5006,0.2157
4240,-0.8239,-0.4838,0.2085
4260,-0.8278,-0.5055,0.2053
4280,-0.8333,-0.5016,0.2074
4300,-0.8368,-0.4708,0.1985
4320,-0.8383,-0.4867,0.1948
4340,-0.837,-0.4789,0.1843
4360,-0.8466,-0.4701,0.1793
4380,-0.8447,-0.4886,0.1764
4400,-0.8386,-0.4766,0.1534
4420,-0.8477,-0.4958,0.158
4440,-0.8551,-0.4858,0.1447
4460,-0.8507,-0.489,0.1295
4480,-0.8506,-0.4904,0.1208
4500,-0.8545,-0.478,0.1057
4520,-0.8677,-0.4757,0.111
4540,-0.8698,-0.4637,0.1116
4560,-0.8771,-0.4579,0.1018
4580,-0.8752,-0.4595,0.0903
4600,-0.8745,-0.4604,0.0803
4620,-0.8737,-0.4492,0.0706
4640,-0.8843,-0.4664,0.0759
4660,-0.8912,-0.4604,0.0787
4680,-0.8838,-0.4539,0.0759
4700,-0.882,-0.4502,0.0736
4720,-0.8907,-0.4561,0.0822
4740,-0.8884,-0.4672,0.0883
4760,-0.8787,-0.4424,0.075
4780,-0.8835,-0.4841,0.0927
4800,-0.8783,-0.4556,0.0984
4820,-0.8705,-0.4635,0.1075
4840,-0.8607,-0.49,0.1294
4860,-0.8558,-0.4711,0.1399
4880,-0.8518,-0.4707,0.1407
4900,-0.8483,-0.4729,0.1465
4920,-0.8511,-0.4734,0.1576
4940,-0.8453,-0.4819,0.1693
4960,-0.8379,-0.4843,0.1754
4980,-0.8442,-0.4753,0.1913
5000,-0.844,-0.4878,0.2048
5020,-0.8436,-0.4905,0.2164
5040,-0.8287,-0.4884,0.213
5060,-0.8344,-0.4944,0.2291
5080,-0.8276,-0.48,0.2225
5100,-0.8186,-0.4884,0.2305
5120,-0.8168,-0.4867,0.2245
5140,-0.821,-0.4863,0.2262
5160,-0.828,-0.5063,0.2334
5180,-0.8329,-0.4938,0.2316
5200,-0.8348,-0.4983,0.2383
5220,-0.826,-0.4761,0.2286
5240,-0.8311,-0.4971,0.2262
5260,-0.8315,-0.4851,0.21
5280,-0.833,-0.48,0.1956
5300,-0.8409,-0.5048,0.1989
5320,-0.8552,-0.4934,0.2047
5340,-0.845,-0.462,0.1948
5360,-0.8367,-0.4874,0.1793
5380,-0.8372,-0.4802,0.1593
5400,-0.8511,-0.4865,0.1611
5420,-0.8474,-0.481,0.1503
5440,-0.8557,-0.4935,0.1449
5460,-0.8462,-0.4858,0.1252
5480,-0.8517,-0.4922,0.1285
5500,-0.8524,-0.4718,0.1093
5520,-0.8667,-0.4855,0.1121
5540,-0.8741,-0.4601,0.1107
5560,-0.8801,-0.4578,0.1029
5580,-0.8754,-0.464,0.0977
5600,-0.8813,-0.4574,0.0907
5620,-0.8749,-0.4546,0.0813
5640,-0.8804,-0.4692,0.0859
5660,-0.876,-0.4598,0.0752
5680,-0.8759,-0.4722,0.0746
5700,-0.8735,-0.4639,0.0663
5720,-0.8787,-0.478,0.0679
5740,-0.869,-0.4687,0.0656
5760,-0.8723,-0.4696,0.0649
5780,-0.8751,-0.4769,0.0718
5800,-0.8745,-0.49,0.083
5820,-0.8502,-0.4565,0.0724
5840,-0.8644,-0.494,0.0836
5860,-0.8641,-0.5005,0.0883
5880,-0.8619,-0.4755,0.0861
5900,-0.8353,-0.4971,0.0863
5920,-0.8315,-0.5122,0.0942
5940,-0.8416,-0.5198,0.1116
5960,-0.8634,-0.5177,0.1365
5980,-0.8379,-0.5291,0.1429
6000,-0.8364,-0.5217,0.1541
6020,-0.8256,-0.5177,0.1542
6040,-0.8174,-0.5289,0.1698
6060,-0.8235,-0.5214,0.174
6080,-0.8257,-0.5267,0.1832
6100,-0.8175,-0.5198,0.1991
6120,-0.8221,-0.5039,0.2056
6140,-0.8235,-0.5073,0.2186
6160,-0.8278,-0.501,0.2327
6180,-0.8265,-0.4922,0.2285
6200,-0.8218,-0.5066,0.2404
6220,-0.8158,-0.4801,0.2284
6240,-0.8234,-0.4915,0.2385
6260,-0.8246,-0.4929,0.2412
6280,-0.8246,-0.4869,0.2417
6300,-0.8241,-0.485,0.2423
6320,-0.8173,-0.4833,0.2251
6340,-0.8322,-0.4904,0.2317
6360,-0.8411,-0.4854,0.2262
6380,-0.8389,-0.4875,0.2203
6400,-0.8311,-0.4598,0.1971
6420,-0.8323,-0.5005,0.1857
6440,-0.8455,-0.4713,0.1711
6460,-0.8416,-0.5073,0.1578
6480,-0.8389,-0.5006,0.1429
6500,-0.8322,-0.4771,0.1155
6520,-0.8459,-0.4767,0.1189
6540,-0.8652,-0.4988,0.1298
6560,-0.871,-0.4634,0.1133
6580,-0.8792,-0.459,0.0894
6600,-0.8944,-0.4644,0.0884
6620,-0.8817,-0.45,0.075
6640,-0.8796,-0.4521,0.063
6660,-0.8778,-0.4672,0.0571
6680,-0.8849,-0.4585,0.0553
6700,-0.8901,-0.4569,0.0557
6720,-0.8877,-0.4685,0.0703
6740,-0.8739,-0.4501,0.0564
6760,-0.8737,-0.4714,0.0581
6780,-0.8756,-0.4639,0.0645
6800,-0.8728,-0.4803,0.0638
6820,-0.8649,-0.464,0.0566
6840,-0.8671,-0.4801,0.067
6860,-0.8699,-0.4684,0.0676
6880,-0.8704,-0.4684,0.0684
6900,-0.8717,-0.4723,0.0729
6920,-0.8647,-0.4991,0.0868
6940,-0.8574,-0.4883,0.0953
6960,-0.8545,-0.494,0.0936
6980,-0.8479,-0.5214,0.1011
7000,-0.8419,-0.498,0.1056
7020,-0.8339,-0.5386,0.1182
7040,-0.8346,-0.5365,0.1343
7060,-0.8307,-0.5179,0.1433
7080,-0.8309,-0.5118,0.1509
7100,-0.8314,-0.5109,0.1696
7120,-0.834,-0.5037,0.1802
7140,-0.8326,-0.5005,0.1881
7160,-0.83,-0.5034,0.1915
7180,-0.8274,-0.5005,0.1945
7200,-0.8253,-0.4983,0.194
7220,-0.8273,-0.5131,0.1931
7240,-0.8298,-0.5049,0.1981
7260,-0.8324,-0.5039,0.1959
7280,-0.8246,-0.5143,0.1962
7300,-0.8246,-0.4967,0.1816
7320,-0.8313,-0.5043,0.1807
7340,-0.838,-0.5216,0.1777
7360,-0.8357,-0.4957,0.1652
7380,-0.8318,-0.4968,0.1572
7400,-0.8324,-0.4996,0.1423
7420,-0.8444,-0.5007,0.1261
7440,-0.8439,-0.5037,0.1285
7460,-0.8414,-0.4784,0.1198
7480,-0.8522,-0.4974,0.1042
7500,-0.8495,-0.5005,0.1051
7520,-0.8667,-0.4785,0.088
7540,-0.8682,-0.4902,0.0796
7560,-0.8704,-0.48,0.0828
7580,-0.8768,-0.4717,0.0785
7600,-0.8792,-0.4546,0.0885
7620,-0.8766,-0.4739,0.0775
7640,-0.8638,-0.4733,0.0702
7660,-0.865,-0.4857,0.0637
7680,-0.866,-0.4924,0.0718
7700,-0.8671,-0.479,0.0649
7720,-0.8602,-0.484,0.0618
7740,-0.8673,-0.49,0.0621
7760,-0.863,-0.4917,0.0548
7780,-0.8693,-0.4749,0.0616
7800,-0.8705,-0.4868,0.0688
7820,-0.8687,-0.4763,0.069
7840,-0.8718,-0.4945,0.0808
7860,-0.8636,-0.4724,0.0704
7880,-0.8632,-0.4867,0.0834
7900,-0.8595,-0.4902,0.0956
7920,-0.856,-0.4883,0.0979
7940,-0.851,-0.4901,0.1012
7960,-0.8439,-0.5137,0.1127
7980,-0.8459,-0.4988,0.1285
8000,-0.8408,-0.505,0.1335
8020,-0.8416,-0.5078,0.1431
8040,-0.8386,-0.4937,0.1464
8060,-0.8408,-0.5061,0.1514
8080,-0.8337,-0.5051,0.1578
8100,-0.8373,-0.5117,0.1656
8120,-0.8334,-0.5044,0.1714
8140,-0.8306,-0.5067,0.1719
8160,-0.8307,-0.504,0.1726
8180,-0.8401,-0.5007,0.1786
8200,-0.8337,-0.4932,0.1747
8220,-0.8396,-0.5018,0.1782
8240,-0.8381,-0.5011,0.17
8260,-0.8322,-0.499,0.1643
8280,-0.8354,-0.5087,0.1656
8300,-0.8408,-0.4919,0.1523
8320,-0.8408,-0.509,0.1541
8340,-0.8408,-0.4977,0.1426
8360,-0.847,-0.4933,0.1375
8380,-0.8484,-0.5049,0.1365
8400,-0.8481,-0.4869,0.1259
8420,-0.8549,-0.4933,0.1229
8440,-0.8521,-0.4961,0.1162
8460,-0.8542,-0.4893,0.1097
8480,-0.8488,-0.495,0.1044
8500,-0.8502,-0.4822,0.0903
8520,-0.863,-0.5005,0.1145
8540,-0.8652,-0.484,0.1097
8560,-0.8564,-0.4873,0.1025
8580,-0.8485,-0.4795,0.0984
8600,-0.8555,-0.4927,0.1071
8620,-0.8633,-0.4901,0.1067
8640,-0.8646,-0.4769,0.1072
8660,-0.8624,-0.4691,0.1055
8680,-0.8594,-0.4828,0.1067
8700,-0.8601,-0.4764,0.0936
8720,-0.8632,-0.4906,0.0972
8740,-0.863,-0.4943,0.0931
8760,-0.8585,-0.4783,0.087
8780,-0.8623,-0.4851,0.0933
8800,-0.8605,-0.4866,0.0914
8820,-0.8601,-0.4751,0.0836
8840,-0.8655,-0.4943,0.0959
8860,-0.8658,-0.4708,0.0975
8880,-0.8645,-0.4749,0.1038
8900,-0.8677,-0.4866,0.1107
8920,-0.8618,-0.4746,0.1107
8940,-0.8582,-0.5127,0.104
8960,-0.8423,-0.4927,0.104
8980,-0.8456,-0.5037,0.1188
9000,-0.843,-0.5004,0.1251
9020,-0.8447,-0.5061,0.1287
9040,-0.8412,-0.504,0.1296
9060,-0.8408,-0.5146,0.136
9080,-0.837,-0.5135,0.1414
9100,-0.8347,-0.5146,0.1497
9120,-0.8354,-0.5121,0.1591
9140,-0.8358,-0.5216,0.1685
9160,-0.829,-0.517,0.1763
9180,-0.833,-0.5038,0.1689
9200,-0.8231,-0.5173,0.1781
9220,-0.8389,-0.4639,0.1543
9240,-0.8472,-0.4556,0.1414
9260,-0.8544,-0.5121,0.1677
9280,-0.8638,-0.4287,0.1516
9300,-0.858,-0.4894,0.1688
9320,-0.8503,-0.4591,0.1466
9340,-0.8547,-0.4578,0.1244
9360,-0.8643,-0.5111,0.1271
9380,-0.8605,-0.4893,0.1233
9400,-0.8507,-0.4868,0.1085
9420,-0.8511,-0.5087,0.1067
9440,-0.8574,-0.4919,0.101
9460,-0.8636,-0.4904,0.1079
9480,-0.8568,-0.4813,0.1105
9500,-0.8591,-0.4854,0.1125
9520,-0.8573,-0.4801,0.1168
9540,-0.8606,-0.4855,0.1195
9560,-0.8556,-0.4855,0.1169
9580,-0.8545,-0.4894,0.1206
9600,-0.8519,-0.4856,0.1213
9620,-0.8583,-0.4934,0.1272
9640,-0.854,-0.4945,0.1241
9660,-0.8489,-0.5004,0.1239
9680,-0.8455,-0.4945,0.1313
9700,-0.8496,-0.4976,0.1375
9720,-0.8473,-0.494,0.1364
9740,-0.848,-0.4972,0.1409
9760,-0.8481,-0.4872,0.1383
9780,-0.8506,-0.4932,0.1484
9800,-0.8512,-0.4845,0.1458
9820,-0.8538,-0.4866,0.146
9840,-0.8506,-0.4938,0.1488
9860,-0.8458,-0.4929,0.147
9880,-0.8463,-0.4895,0.1492
9900,-0.8481,-0.49,0.1564
9920,-0.8542,-0.4785,0.1594
9940,-0.8562,-0.4723,0.1577
9960,-0.8562,-0.4742,0.1603
9980,-0.8557,-0.4736,0.1543
10000,-0.8496,-0.474,0.1499
10020,-0.8602,-0.4797,0.1541
10040,-0.856,-0.4683,0.1511
10060,-0.8562,-0.4773,0.1499
10080,-0.8513,-0.4745,0.1471
10100,-0.8579,-0.4752,0.1498
10120,-0.8563,-0.4696,0.1497
10140,-0.855,-0.4802,0.1499
10160,-0.8523,-0.4777,0.1489
10180,-0.8556,-0.481,0.1497
10200,-0.8535,-0.4698,0.1497
10220,-0.8545,-0.4846,0.1464
10240,-0.8525,-0.4814,0.1459
10260,-0.8534,-0.4844,0.1486
10280,-0.856,-0.48,0.1511
10300,-0.8583,-0.4753,0.1484
10320,-0.8589,-0.4741,0.1531
10340,-0.8586,-0.4719,0.1532
10360,-0.8566,-0.4716,0.1521
10380,-0.8568,-0.4768,0.1503
10400,-0.8555,-0.4724,0.1509
10420,-0.8547,-0.4786,0.1495
10440,-0.8563,-0.4674,0.1432
10460,-0.855,-0.4841,0.1429
10480,-0.8546,-0.4736,0.1478
10500,-0.8635,-0.467,0.1433
10520,-0.8718,-0.4744,0.141
10540,-0.8635,-0.4923,0.1384
10560,-0.8655,-0.4924,0.1458
10580,-0.8638,-0.538,0.1505
10600,-0.8678,-0.4952,0.1392
10620,-0.8446,-0.4993,0.1897
10640,-0.8584,-0.5011,0.1978
10660,-0.8617,-0.457,0.2098
10680,-0.8455,-0.4314,0.2147
10700,-0.8409,-0.436,0.2351
10720,-0.8462,-0.4192,0.2542
10740,-0.8401,-0.3823,0.2622
10760,-0.8456,-0.3942,0.2761
10780,-0.8479,-0.3959,0.2847
10800,-0.8424,-0.4105,0.282
10820,-0.8663,-0.4156,0.2793
10840,-0.8594,-0.3822,0.2682
10860,-0.8558,-0.3577,0.251
10880,-0.866,-0.4049,0.2578
10900,-0.8767,-0.3646,0.2305
10920,-0.8842,-0.351,0.2329
10940,-0.8882,-0.3959,0.2065
10960,-0.8685,-0.4189,0.1808
10980,-0.8718,-0.4419,0.166
11000,-0.8693,-0.4365,0.156
11020,-0.8851,-0.4277,0.1656
11040,-0.8949,-0.4075,0.1586
11060,-0.9005,-0.4011,0.1541
11080,-0.8936,-0.4189,0.135
11100,-0.8901,-0.4333,0.1339
11120,-0.8903,-0.4275,0.1306
11140,-0.8907,-0.4163,0.1266
11160,-0.8976,-0.4221,0.1313
11180,-0.8906,-0.4205,0.1191
11200,-0.8937,-0.4209,0.1382
11220,-0.8934,-0.3994,0.1377
11240,-0.8939,-0.4122,0.1523
11260,-0.8864,-0.4126,0.15
11280,-0.8827,-0.4347,0.1567
11300,-0.8898,-0.4268,0.1868
11320,-0.8707,-0.3937,0.1658
11340,-0.8682,-0.41,0.1803
11360,-0.8818,-0.4653,0.184
11380,-0.8739,-0.397,0.2166
11400,-0.8656,-0.4147,0.2283
11420,-0.856,-0.457,0.2434
11440,-0.8514,-0.4203,0.2656
11460,-0.8495,-0.4296,0.2711
11480,-0.8165,-0.441,0.2797
11500,-0.8486,-0.4153,0.2903
11520,-0.8461,-0.422,0.2792
11540,-0.8424,-0.4409,0.2889
11560,-0.8401,-0.4414,0.2867
11580,-0.8406,-0.4366,0.2866
11600,-0.8341,-0.4357,0.2731
11620,-0.8359,-0.4442,0.2585
11640,-0.827,-0.4735,0.2495
11660,-0.8295,-0.4753,0.2388
11680,-0.8335,-0.4677,0.231
11700,-0.8402,-0.4805,0.2153
11720,-0.8431,-0.4702,0.2058
11740,-0.8571,-0.4753,0.1929
11760,-0.8662,-0.4624,0.1755
11780,-0.8688,-0.4597,0.1719
11800,-0.868,-0.4526,0.1469
11820,-0.8748,-0.4498,0.1215
11840,-0.8752,-0.4568,0.0994
11860,-0.8745,-0.4565,0.0927
11880,-0.8811,-0.4563,0.0759
11900,-0.895,-0.4541,0.0721
11920,-0.8916,-0.4308,0.0629
11940,-0.8972,-0.4467,0.067
11960,-0.8936,-0.4336,0.0621
11980,-0.903,-0.4491,0.0712
12000,-0.8993,-0.4165,0.0614
12020,-0.9004,-0.427,0.0668
12040,-0.8955,-0.4408,0.056
12060,-0.8964,-0.4429,0.0573
12080,-0.891,-0.4294,0.0439
12100,-0.8846,-0.4545,0.0477
12120,-0.8737,-0.4518,0.0514
12140,-0.8843,-0.4375,0.0641
12160,-0.8954,-0.4425,0.0741
12180,-0.8994,-0.4135,0.0686
12200,-0.8927,-0.4432,0.0597
12220,-0.8888,-0.4481,0.0706
12240,-0.887,-0.4706,0.0846
12260,-0.8934,-0.4674,0.1069
12280,-0.8735,-0.4736,0.113
12300,-0.8563,-0.4768,0.1123
12320,-0.8511,-0.4652,0.1104
12340,-0.8523,-0.4757,0.1234
12360,-0.8536,-0.4633,0.1299
12380,-0.8518,-0.4944,0.1504
12400,-0.8553,-0.5049,0.1792
12420,-0.8516,-0.5002,0.1991
12440,-0.8461,-0.4861,0.2072
12460,-0.8417,-0.4827,0.2187
12480,-0.8344,-0.4835,0.215
12500,-0.83,-0.4808,0.2238
12520,-0.8325,-0.4656,0.2317
12540,-0.8364,-0.4614,0.2377
12560,-0.8451,-0.4579,0.2444
12580,-0.8494,-0.4467,0.2543
12600,-0.8523,-0.443,0.2542
12620,-0.8812,-0.4338,0.2776
12640,-0.8822,-0.4263,0.2565
12660,-0.8555,-0.3979,0.2744
12680,-0.8639,-0.373,0.2661
12700,-0.8655,-0.3845,0.2385
12720,-0.8567,-0.4135,0.2394
12740,-0.8546,-0.4127,0.2329
12760,-0.855,-0.3975,0.2434
12780,-0.8599,-0.4061,0.2253
12800,-0.874,-0.4172,0.2213
12820,-0.8746,-0.397,0.2207
12840,-0.8855,-0.4093,0.2296
12860,-0.881,-0.3715,0.1787
12880,-0.8834,-0.3982,0.182
12900,-0.8844,-0.423,0.1956
12920,-0.8917,-0.386,0.1985
12940,-0.901,-0.3711,0.1954
12960,-0.8983,-0.3706,0.1674
12980,-0.8892,-0.4191,0.1672
13000,-0.8835,-0.4133,0.1523
13020,-0.8762,-0.426,0.1531
13040,-0.8729,-0.4252,0.168
13060,-0.884,-0.4086,0.1844
13080,-0.8851,-0.3885,0.1719
13100,-0.9049,-0.4198,0.1849
13120,-0.9019,-0.4167,0.1897
13140,-0.8911,-0.4078,0.2045
13160,-0.8789,-0.4037,0.1919
13180,-0.8824,-0.4004,0.1989
13200,-0.8789,-0.4082,0.2051
13220,-0.8695,-0.3954,0.1967
13240,-0.8728,-0.4171,0.2057
13260,-0.875,-0.4131,0.2046
13280,-0.8745,-0.4072,0.2098
13300,-0.8715,-0.3979,0.2207
13320,-0.8739,-0.4019,0.2336
13340,-0.8657,-0.3925,0.2275
13360,-0.8674,-0.4087,0.2344
13380,-0.8427,-0.4393,0.2469
13400,-0.8623,-0.4095,0.2495
13420,-0.8617,-0.4264,0.2676
13440,-0.8522,-0.4187,0.2667
13460,-0.8596,-0.4114,0.2732
13480,-0.8589,-0.4131,0.2684
13500,-0.8514,-0.4377,0.2766
13520,-0.8528,-0.4384,0.2939
13540,-0.8531,-0.4232,0.296
13560,-0.8534,-0.4181,0.29
13580,-0.8499,-0.4163,0.2852
13600,-0.8545,-0.4207,0.2893
13620,-0.8635,-0.3914,0.2792
13640,-0.8655,-0.4006,0.2742
13660,-0.8591,-0.4033,0.2708
13680,-0.8629,-0.3945,0.2769
13700,-0.8666,-0.3882,0.2737
13720,-0.8663,-0.3834,0.2631
13740,-0.871,-0.3926,0.2556
13760,-0.8729,-0.3862,0.2411
13780,-0.8774,-0.3837,0.2371
13800,-0.8716,-0.3967,0.2202
13820,-0.8826,-0.3966,0.205
13840,-0.8848,-0.3997,0.1985
13860,-0.8842,-0.4043,0.189
13880,-0.8881,-0.4003,0.187
13900,-0.8967,-0.3878,0.1797
13920,-0.8876,-0.3983,0.1655
13940,-0.8864,-0.4246,0.165
13960,-0.8833,-0.416,0.156
13980,-0.8824,-0.4335,0.1478
14000,-0.8901,-0.4175,0.155
14020,-0.8888,-0.4125,0.152
14040,-0.8877,-0.4183,0.1519
14060,-0.8875,-0.4257,0.1456
14080,-0.8881,-0.4243,0.1464
14100,-0.8899,-0.4227,0.1517
14120,-0.8904,-0.4132,0.1555
14140,-0.8864,-0.4081,0.1562
14160,-0.8834,-0.4246,0.1573
14180,-0.884,-0.415,0.1639
14200,-0.8845,-0.4084,0.1648
14220,-0.8801,-0.4187,0.1685
14240,-0.8866,-0.4136,0.1714
14260,-0.8811,-0.4231,0.1844
14280,-0.8799,-0.4038,0.1925
14300,-0.8761,-0.3998,0.2
14320,-0.8737,-0.4176,0.2047
14340,-0.8629,-0.4149,0.1997
14360,-0.8618,-0.4241,0.2097
14380,-0.86,-0.4189,0.2124
14400,-0.8776,-0.4363,0.2207
14420,-0.8569,-0.4325,0.223
14440,-0.8562,-0.4403,0.2332
14460,-0.8491,-0.4595,0.2809
14480,-0.834,-0.4841,0.2516
14500,-0.8436,-0.4849,0.2664
14520,-0.8365,-0.443,0.2571
14540,-0.8217,-0.4729,0.2571
14560,-0.8278,-0.4867,0.2509
14580,-0.8118,-0.479,0.2512
14600,-0.8094,-0.4803,0.2406
14620,-0.8159,-0.4812,0.2264
14640,-0.8196,-0.4645,0.2109
14660,-0.9006,-0.4824,0.246
14680,-0.9171,-0.3829,0.2516
14700,-0.8898,-0.356,0.2172
14720,-0.8789,-0.3887,0.1851
14740,-0.8896,-0.4324,0.1685
14760,-0.875,-0.3965,0.1501
14780,-0.8965,-0.4019,0.1281
14800,-0.8865,-0.3983,0.0883
14820,-0.9235,-0.451,0.1079
14840,-0.8655,-0.4039,0.0941
14860,-0.8783,-0.4365,0.1106
14880,-0.9161,-0.4337,0.1119
14900,-0.938,-0.3909,0.0923
14920,-0.9045,-0.3842,0.071
14940,-0.8896,-0.4119,0.0671
14960,-0.8903,-0.4677,0.0787
14980,-0.8984,-0.4526,0.0842
15000,-0.8956,-0.4138,0.078
15020,-0.9028,-0.4149,0.0807
15040,-0.8955,-0.4275,0.0959
15060,-0.8982,-0.4458,0.1019
15080,-0.8949,-0.3928,0.0989
15100,-0.9216,-0.3596,0.0978
15120,-0.9103,-0.4059,0.098
15140,-0.8796,-0.4547,0.1187
15160,-0.8677,-0.4691,0.1356
15180,-0.8688,-0.4486,0.1578
15200,-0.8605,-0.4487,0.1627
15220,-0.8638,-0.4609,0.1707
15240,-0.8652,-0.4362,0.1969
15260,-0.8521,-0.4366,0.2229
15280,-0.8588,-0.4104,0.236
15300,-0.8555,-0.3929,0.2662
15320,-0.8479,-0.451,0.2632
15340,-0.86,-0.4246,0.277
15360,-0.8484,-0.4995,0.287
15380,-0.8236,-0.4202,0.3577
15400,-0.8243,-0.4153,0.3945
15420,-0.908,-0.3513,0.4578
15440,-0.8672,-0.3041,0.5662
15460,-0.8585,-0.0652,0.3723
15480,-0.7856,-0.1448,0.3995
15500,-0.8204,-0.3232,0.3828
15520,-0.7983,-0.2513,0.3153
15540,-0.7043,-0.3492,0.2529
15560,-0.7756,-0.2587,0.4746
15580,-1.0007,-0.1667,0.4392
15600,-0.9498,0.0081,0.3931
15620,-0.7726,-0.3718,0.6129
15640,-0.7961,-0.3706,0.4186
15660,-0.9169,-0.2679,0.3539
15680,-0.856,-0.2063,0.4948
15700,-0.8508,-0.3273,0.3989
15720,-0.9246,-0.2734,0.3611
15740,-0.8622,-0.3116,0.3739
15760,-0.8688,-0.3125,0.2905
15780,-0.8727,-0.324,0.2574
15800,-0.8802,-0.3362,0.2935
15820,-0.8903,-0.3243,0.2706
15840,-0.8954,-0.3684,0.2581
15860,-0.8651,-0.3829,0.2792
15880,-0.9021,-0.4066,0.2588
15900,-0.8901,-0.3743,0.2858
15920,-0.8846,-0.3254,0.2732
15940,-0.8809,-0.3511,0.2402
15960,-0.8497,-0.3641,0.2821
15980,-0.873,-0.3766,0.3049
16000,-0.8716,-0.4149,0.264
16020,-0.8894,-0.3901,0.2769
16040,-0.8691,-0.4182,0.2615
16060,-0.8833,-0.3945,0.2516
16080,-0.8354,-0.3829,0.2881
16100,-0.8838,-0.3735,0.2543
16120,-0.8488,-0.3689,0.2618
16140,-0.8702,-0.387,0.2468
16160,-0.8566,-0.3994,0.2908
16180,-0.8694,-0.3993,0.2761
16200,-0.8635,-0.4263,0.2637
16220,-0.8994,-0.3362,0.312
16240,-0.9001,-0.3877,0.243
16260,-0.8444,-0.4269,0.2377
16280,-0.8535,-0.4338,0.2416
16300,-0.8712,-0.3892,0.2333
16320,-0.8802,-0.3434,0.2426
16340,-0.8937,-0.2992,0.248
16360,-0.8898,-0.3491,0.2374
16380,-0.8947,-0.4835,0.2312
16400,-0.8634,-0.4908,0.2122
16420,-0.9047,-0.3904,0.2017
16440,-0.8787,-0.3932,0.1923
16460,-0.8958,-0.3928,0.2616
16480,-0.8723,-0.3324,0.2432
16500,-0.9209,-0.3208,0.2471
16520,-0.9254,-0.365,0.2722
16540,-0.8821,-0.4117,0.2361
16560,-0.8617,-0.4045,0.1884
16580,-0.9222,-0.319,0.1348
16600,-0.8666,-0.3707,0.2146
16620,-0.934,-0.3068,0.1969
16640,-0.9586,-0.3408,0.1907
16660,-0.8818,-0.3225,0.2023
16680,-0.8757,-0.4191,0.1749
16700,-0.9224,-0.3422,0.1743
16720,-0.915,-0.3636,0.1454
16740,-0.9482,-0.3156,0.1315
16760,-0.9504,-0.3179,0.1327
16780,-0.939,-0.2767,0.1561
16800,-0.9375,-0.4138,0.1616
16820,-0.8965,-0.3728,0.1379
16840,-0.8978,-0.3988,0.145
16860,-0.9338,-0.3467,0.1128
16880,-0.8954,-0.3151,0.1274
16900,-0.8604,-0.265,0.1306
16920,-0.9312,-0.304,0.1364
16940,-0.9431,-0.3601,0.1208
16960,-0.9719,-0.4259,0.1284
16980,-0.9135,-0.3864,0.1255
17000,-0.9336,-0.3507,0.1147
17020,-0.9384,-0.3236,0.0858
17040,-0.9501,-0.3207,0.0973
17060,-0.9327,-0.3113,0.1375
17080,-0.9348,-0.3484,0.1454
17100,-0.8658,-0.4091,0.1464
17120,-0.9429,-0.2847,0.166
17140,-0.9318,-0.2275,0.1947
17160,-0.8372,-0.3789,0.2294
17180,-0.8309,-0.4277,0.3024
17200,-0.8777,-0.3031,0.2585
17220,-0.8125,-0.3187,0.4093
17240,-0.7836,-0.1484,0.4631
17260,-0.8823,-0.3208,0.5664
17280,-0.9517,-0.244,0.5908
17300,-0.8252,-0.1603,0.5076
17320,-0.7922,-0.2258,0.4161
17340,-0.8153,-0.2411,0.4828
17360,-0.8247,-0.2509,0.465
17380,-0.8208,-0.2009,0.3955
17400,-0.8445,-0.1698,0.4119
17420,-0.9017,-0.0952,0.4635
17440,-1.0087,-0.0216,0.3566
17460,-0.9185,-0.1033,0.4653
17480,-0.8804,-0.2155,0.3826
17500,-0.8524,-0.256,0.4052
17520,-0.9099,-0.2327,0.4268
17540,-0.908,-0.1935,0.4924
17560,-0.838,-0.1689,0.4305
17580,-0.7781,-0.2117,0.4381
17600,-0.78,-0.3281,0.4712
17620,-0.8085,-0.3235,0.392
17640,-0.8384,-0.4036,0.4043
17660,-0.8846,-0.3398,0.4475
17680,-0.8162,-0.2957,0.3387
17700,-1.1327,-0.2631,0.4103
17720,-0.8596,-0.2445,0.3608
17740,-0.7772,-0.4304,0.2443
17760,-0.8716,-0.4156,0.317
17780,-0.8679,-0.3127,0.2413
17800,-0.8938,-0.3591,0.3138
17820,-0.8868,-0.3304,0.2133
17840,-0.8563,-0.2465,0.1968
17860,-0.9241,-0.2612,0.229
17880,-0.9254,-0.2701,0.1837
17900,-0.9363,-0.269,0.1766
17920,-0.9382,-0.3083,0.1609
17940,-0.9376,-0.3217,0.1517
17960,-0.9288,-0.2994,0.1537
17980,-0.9451,-0.3099,0.1593
18000,-0.9474,-0.2914,0.1622
18020,-0.9468,-0.281,0.1428
18040,-0.936,-0.3295,0.1613
18060,-0.9257,-0.3407,0.1328
18080,-0.9202,-0.3456,0.1469
18100,-0.9261,-0.3232,0.1522
18120,-0.9326,-0.3202,0.1614
18140,-0.915,-0.3478,0.1698
18160,-0.9183,-0.3672,0.1688
18180,-0.8719,-0.4248,0.1637
18200,-0.8831,-0.4365,0.1703
18220,-0.8354,-0.4061,0.2292
18240,-0.9124,-0.3451,0.2339
18260,-0.9114,-0.3251,0.2377
18280,-0.8561,-0.3237,0.266
18300,-0.8015,-0.3988,0.2634
18320,-0.8511,-0.4119,0.2789
18340,-0.8473,-0.4113,0.3005
18360,-0.8605,-0.3843,0.3584
18380,-0.8347,-0.422,0.3356
18400,-0.866,-0.3351,0.3936
18420,-0.839,-0.4019,0.3921
18440,-0.8286,-0.403,0.3846
18460,-0.8174,-0.4254,0.3751
18480,-0.826,-0.4225,0.3849
18500,-0.8075,-0.4343,0.3789
18520,-0.8274,-0.4064,0.3796
18540,-0.8132,-0.4124,0.3619
18560,-0.814,-0.4185,0.3635
18580,-0.8175,-0.4178,0.3383
18600,-0.8345,-0.4105,0.3483
18620,-0.8323,-0.3928,0.3293
18640,-0.8264,-0.3765,0.3295
18660,-0.8151,-0.3849,0.3187
18680,-0.8265,-0.4183,0.3378
18700,-0.8136,-0.4038,0.2994
18720,-0.8391,-0.4044,0.324
18740,-0.8473,-0.4172,0.3057
18760,-0.8212,-0.4471,0.2914
18780,-0.7963,-0.4694,0.2794
18800,-0.8307,-0.4979,0.2662
18820,-0.8416,-0.5139,0.2501
18840,-0.8405,-0.5006,0.2311
18860,-0.8385,-0.4948,0.2031
18880,-0.8273,-0.4854,0.1804
18900,-0.8447,-0.4589,0.1753
18920,-0.8634,-0.4736,0.1589
18940,-0.8638,-0.4774,0.156
18960,-0.8724,-0.4479,0.15
18980,-0.88,-0.4307,0.1466
19000,-0.8718,-0.4174,0.118
19020,-0.8802,-0.4647,0.1173
19040,-0.8616,-0.4551,0.0947
19060,-0.8722,-0.443,0.11
19080,-0.88,-0.4423,0.1099
19100,-0.8937,-0.427,0.1052
19120,-0.8967,-0.4331,0.0963
19140,-0.8903,-0.4268,0.0889
19160,-0.8896,-0.4291,0.0825
19180,-0.8982,-0.4554,0.0875
19200,-0.8931,-0.4387,0.0803
19220,-0.8938,-0.4297,0.082
19240,-0.8914,-0.4434,0.0828
19260,-0.8949,-0.439,0.0813
19280,-0.8911,-0.4421,0.0836
19300,-0.8876,-0.4403,0.0879
19320,-0.8726,-0.4473,0.0793
19340,-0.8898,-0.454,0.0908
19360,-0.8807,-0.4443,0.0983
19380,-0.8767,-0.4414,0.0999
19400,-0.8761,-0.4431,0.1141
19420,-0.8756,-0.4548,0.1169
19440,-0.8695,-0.4705,0.1259
19460,-0.8625,-0.4617,0.1481
19480,-0.8562,-0.4741,0.16
19500,-0.8453,-0.4922,0.1602
19520,-0.8372,-0.4844,0.1621
19540,-0.84,-0.473,0.1761
19560,-0.8463,-0.4863,0.1975
19580,-0.8616,-0.4465,0.2397
19600,-0.8436,-0.4451,0.2415
19620,-0.8424,-0.4855,0.2469
19640,-0.8401,-0.4755,0.2551
19660,-0.8314,-0.4852,0.2466
19680,-0.8309,-0.474,0.2675
19700,-0.8246,-0.4755,0.2662
19720,-0.8264,-0.4763,0.2791
19740,-0.8276,-0.4492,0.2782
19760,-0.829,-0.455,0.2976
19780,-0.8263,-0.4469,0.3016
19800,-0.8315,-0.4431,0.3136
19820,-0.832,-0.4344,0.3151
19840,-0.8181,-0.4414,0.3186
19860,-0.8191,-0.4408,0.3107
19880,-0.8169,-0.4321,0.3033
19900,-0.8157,-0.4534,0.3048
19920,-0.8185,-0.4602,0.3059
19940,-0.8271,-0.4526,0.3124
19960,-0.8264,-0.433,0.3029
19980,-0.8306,-0.433,0.3047
20000,-0.8357,-0.4431,0.3062
20020,-0.8286,-0.4545,0.2936
20040,-0.8303,-0.4558,0.2939
20060,-0.8385,-0.4509,0.2893
20080,-0.8271,-0.4445,0.2815
20100,-0.8257,-0.4426,0.2584
20120,-0.8171,-0.4602,0.2546
20140,-0.8182,-0.4629,0.2449
20160,-0.8042,-0.4578,0.2212
20180,-0.8157,-0.4685,0.2152
20200,-0.8636,-0.486,0.2006
20220,-0.9045,-0.5151,0.2233
20240,-0.8876,-0.4707,0.2035
20260,-0.8348,-0.479,0.1549
20280,-0.8188,-0.5171,0.1443
20300,-0.8083,-0.5399,0.1193
20320,-0.8481,-0.52,0.121
20340,-0.8622,-0.5155,0.1052
20360,-0.8599,-0.5067,0.0835
20380,-0.8405,-0.501,0.0663
20400,-0.8435,-0.5018,0.0629
20420,-0.8527,-0.5217,0.0762
20440,-0.8684,-0.5026,0.0704
20460,-0.8624,-0.4895,0.0621
20480,-0.8632,-0.4904,0.0676
20500,-0.8627,-0.4952,0.0648
20520,-0.8613,-0.4977,0.0571
20540,-0.8633,-0.4912,0.0549
20560,-0.8663,-0.4913,0.0593
20580,-0.8674,-0.4818,0.0602
20600,-0.8657,-0.4955,0.0669
20620,-0.8639,-0.4769,0.0707
20640,-0.8622,-0.4872,0.0781
20660,-0.8596,-0.4791,0.0786
20680,-0.8641,-0.4816,0.0861
20700,-0.8605,-0.4883,0.0917
20720,-0.8594,-0.4962,0.1046
20740,-0.8513,-0.4825,0.1174
20760,-0.8469,-0.49,0.1194
20780,-0.8527,-0.4825,0.1282
20800,-0.8507,-0.4902,0.1389
20820,-0.843,-0.5011,0.1504
20840,-0.8375,-0.517,0.1654
20860,-0.8318,-0.5009,0.1741
20880,-0.8359,-0.5057,0.1848
20900,-0.8336,-0.4855,0.1897
20920,-0.8324,-0.4956,0.2004
20940,-0.8337,-0.4913,0.2112
20960,-0.8318,-0.4962,0.2249
20980,-0.8357,-0.494,0.2329
21000,-0.835,-0.4857,0.2504
21020,-0.8314,-0.4587,0.2467
21040,-0.8303,-0.4705,0.2518
21060,-0.8285,-0.4674,0.2511
21080,-0.8313,-0.4727,0.2534
21100,-0.8273,-0.4724,0.2509
21120,-0.8329,-0.4697,0.2561
21140,-0.8304,-0.4556,0.2546
21160,-0.8301,-0.4421,0.2408
21180,-0.8441,-0.4597,0.2449
21200,-0.8524,-0.4552,0.241
21220,-0.8584,-0.4543,0.2402
21240,-0.8518,-0.4659,0.2273
21260,-0.8413,-0.4756,0.2181
21280,-0.8351,-0.4713,0.2028
21300,-0.8361,-0.4948,0.1947
21320,-0.8402,-0.4996,0.1943
21340,-0.8334,-0.4701,0.1646
21360,-0.8452,-0.455,0.1335
21380,-0.8616,-0.4636,0.1232
21400,-0.8728,-0.4631,0.1176
21420,-0.8766,-0.4622,0.0968
21440,-0.8678,-0.4781,0.0956
21460,-0.8708,-0.473,0.0695
21480,-0.8772,-0.4664,0.0775
21500,-0.8741,-0.469,0.0754
21520,-0.8801,-0.4769,0.0715
21540,-0.8754,-0.4847,0.0602
21560,-0.8711,-0.4799,0.0493
21580,-0.8707,-0.4893,0.0548
21600,-0.8705,-0.4738,0.0507
21620,-0.8738,-0.4633,0.0563
21640,-0.8796,-0.4736,0.0609
21660,-0.8741,-0.481,0.0657
21680,-0.8749,-0.4818,0.0778
21700,-0.8628,-0.4929,0.0894
21720,-0.8595,-0.4984,0.0999
21740,-0.8486,-0.4941,0.1112
21760,-0.8445,-0.4918,0.1169
21780,-0.8425,-0.4893,0.1355
21800,-0.8422,-0.5085,0.1647
21820,-0.8398,-0.5049,0.1917
21840,-0.8359,-0.5109,0.196
21860,-0.8394,-0.4911,0.2117
21880,-0.8359,-0.4973,0.2174
21900,-0.8229,-0.5001,0.2352
21920,-0.8169,-0.5001,0.2406
21940,-0.824,-0.4998,0.2487
21960,-0.8221,-0.4734,0.2513
21980,-0.8257,-0.4623,0.2546
22000,-0.8309,-0.4633,0.2722
22020,-0.8309,-0.4705,0.2827
22040,-0.8287,-0.4739,0.2836
22060,-0.8383,-0.4659,0.2897
22080,-0.8374,-0.4558,0.2896
22100,-0.8458,-0.4692,0.2988
22120,-0.8478,-0.4551,0.2993
22140,-0.8264,-0.4454,0.3043
22160,-0.8267,-0.4055,0.2789
22180,-0.8354,-0.3365,0.2748
22200,-0.8234,-0.4148,0.2781
22220,-0.8545,-0.4225,0.266
22240,-0.8365,-0.4138,0.2483
22260,-0.8435,-0.3993,0.2072
22280,-0.8531,-0.376,0.223
22300,-0.8704,-0.3839,0.2092
22320,-0.8806,-0.369,0.1776
22340,-0.8993,-0.365,0.1899
22360,-0.9192,-0.374,0.1808
22380,-0.9224,-0.4015,0.1544
22400,-0.8948,-0.4324,0.1262
22420,-0.8672,-0.4246,0.132
22440,-0.9183,-0.3337,0.1565
22460,-0.95,-0.2936,0.1444
22480,-0.933,-0.33,0.1624
22500,-0.9117,-0.3722,0.1274
22520,-0.9116,-0.3903,0.1064
22540,-0.9417,-0.3636,0.0988
22560,-0.9084,-0.3529,0.1149
22580,-0.9409,-0.3373,0.1093
22600,-0.9163,-0.35,0.1301
22620,-0.9307,-0.3497,0.1444
22640,-0.926,-0.3276,0.1428
22660,-0.9291,-0.2832,0.1656
22680,-0.9581,-0.2393,0.1832
22700,-0.9551,-0.2928,0.1622
22720,-0.8982,-0.4117,0.1284
22740,-0.8868,-0.3828,0.1252
22760,-0.9681,-0.3051,0.1466
22780,-0.9611,-0.2842,0.1475
22800,-0.9427,-0.2625,0.1429
22820,-0.9364,-0.2598,0.1232
22840,-0.9963,-0.2278,0.0709
22860,-0.9105,-0.3955,0.1305
22880,-0.8939,-0.3228,0.1299
22900,-0.9452,-0.2244,0.1876
22920,-0.9148,-0.2958,0.1763
22940,-0.8359,-0.4525,0.2372
22960,-0.6935,-0.5786,0.264
22980,-0.8116,-0.3734,0.1836
23000,-0.9454,-0.2155,0.5043
23020,-0.9216,-0.186,0.5891
23040,-0.8175,-0.184,0.4868
23060,-0.786,-0.2119,0.3842
23080,-0.8322,-0.2775,0.4642
23100,-0.8049,-0.2662,0.4175
23120,-0.799,-0.297,0.3234
23140,-0.8188,-0.3234,0.312
23160,-1.0557,-0.1652,0.358
23180,-1.038,-0.1769,0.3362
23200,-0.9432,-0.2451,0.3794
23220,-0.8923,-0.2891,0.3585
23240,-0.8484,-0.2988,0.3716
23260,-0.882,-0.2433,0.3868
23280,-0.8727,-0.2004,0.4272
23300,-0.8329,-0.2618,0.4327
23320,-0.8123,-0.3214,0.4402
23340,-0.8124,-0.3561,0.4469
23360,-0.7709,-0.343,0.3893
23380,-0.7841,-0.3414,0.4136
23400,-0.8367,-0.3083,0.4956
23420,-0.8197,-0.3713,0.4146
23440,-0.8008,-0.3696,0.4113
23460,-0.6876,-0.463,0.3887
23480,-0.7656,-0.4159,0.4138
23500,-0.8872,-0.3688,0.3688
23520,-0.9491,-0.3574,0.3658
23540,-0.798,-0.39,0.2555
23560,-0.8215,-0.4855,0.2682
23580,-0.8804,-0.4282,0.197
23600,-0.8633,-0.3761,0.1953
23620,-0.8854,-0.3461,0.2314
23640,-0.8884,-0.3636,0.1973
23660,-0.886,-0.3679,0.1589
23680,-0.9082,-0.3872,0.1334
23700,-0.9146,-0.3719,0.1442
23720,-0.9159,-0.3552,0.1328
23740,-0.9194,-0.3407,0.1567
23760,-0.9426,-0.3287,0.1821
23780,-0.9219,-0.343,0.1609
23800,-0.8984,-0.3817,0.1735
23820,-0.9047,-0.3815,0.152
23840,-0.9131,-0.3634,0.173
23860,-0.8883,-0.3981,0.1885
23880,-0.8888,-0.3599,0.2201
23900,-0.9489,-0.2708,0.1796
23920,-0.9451,-0.2756,0.1567
23940,-0.9576,-0.2699,0.1597
23960,-0.9686,-0.2742,0.145
23980,-0.9526,-0.2881,0.1185
24000,-0.9298,-0.3176,0.1168
24020,-0.875,-0.4561,0.1804
24040,-0.7509,-0.4861,0.1969
24060,-0.8739,-0.3512,0.1967
24080,-0.7994,-0.4377,0.202
24100,-0.8281,-0.4618,0.2147
24120,-0.8551,-0.5287,0.2673
24140,-0.8962,-0.5833,0.2947
24160,-0.8123,-0.5695,0.3605
24180,-0.772,-0.4597,0.3668
24200,-0.8966,-0.3583,0.4446
24220,-0.8373,-0.4192,0.4612
24240,-0.8091,-0.3738,0.3848
24260,-0.7882,-0.2798,0.5
24280,-0.739,-0.3176,0.4507
24300,-0.8241,-0.2786,0.475
24320,-0.8058,-0.219,0.4922
24340,-0.7825,-0.2488,0.423
24360,-0.8051,-0.2609,0.4124
24380,-0.8784,-0.3628,0.4657
24400,-0.8497,-0.3019,0.4668
24420,-0.813,-0.2952,0.4271
24440,-0.7859,-0.3502,0.4722
24460,-0.7821,-0.3004,0.4707
24480,-0.8063,-0.2976,0.495
24500,-0.8033,-0.3025,0.4697
24520,-0.8147,-0.2881,0.4791
24540,-0.7355,-0.3295,0.4807
24560,-0.7908,-0.391,0.4686
24580,-0.7769,-0.411,0.4497
24600,-0.7817,-0.4619,0.4692
24620,-0.8064,-0.3964,0.3871
24640,-0.8066,-0.403,0.3798
24660,-0.8051,-0.3796,0.3502
24680,-0.8695,-0.2335,0.3076
24700,-0.8857,-0.3784,0.2135
24720,-0.9525,-0.4497,0.2085
24740,-0.825,-0.3625,0.1385
24760,-0.8746,-0.316,0.1423
24780,-0.9713,-0.2932,0.1171
24800,-0.9265,-0.2943,0.1483
24820,-0.9576,-0.2604,0.1375
24840,-0.9232,-0.3402,0.1442
24860,-0.9341,-0.3374,0.1445
24880,-0.9185,-0.3035,0.1714
24900,-0.9552,-0.2837,0.183
24920,-0.9303,-0.2972,0.1881
24940,-0.9142,-0.3356,0.196
24960,-0.916,-0.3223,0.1669
