timestamp,ax,ay,az
0,-0.7671,-0.5598,0.2173
20,-0.7621,-0.5657,0.1813
40,-0.769,-0.5668,0.1816
60,-0.7954,-0.5566,0.1842
80,-0.8193,-0.5284,0.1715
100,-0.8231,-0.541,0.1486
120,-0.8237,-0.5819,0.0811
140,-0.7953,-0.5754,0.1283
160,-0.802,-0.5815,0.12
180,-0.8102,-0.5781,0.1187
200,-0.8007,-0.575,0.1134
220,-0.7987,-0.5846,0.1205
240,-0.799,-0.5864,0.1187
260,-0.7871,-0.5762,0.1233
280,-0.7867,-0.5753,0.12
300,-0.8038,-0.5854,0.1243
320,-0.7899,-0.5752,0.1367
340,-0.7834,-0.5771,0.146
360,-0.7889,-0.582,0.153
380,-0.7709,-0.577,0.1498
400,-0.7574,-0.6324,0.1619
420,-0.7356,-0.6483,0.2155
440,-0.7603,-0.6233,0.2429
460,-0.766,-0.5773,0.236
480,-0.7927,-0.559,0.2653
500,-0.7679,-0.5647,0.2921
520,-0.7507,-0.5765,0.2849
540,-0.765,-0.5868,0.3251
560,-0.7675,-0.562,0.3121
580,-0.7627,-0.5208,0.2993
600,-0.7537,-0.5387,0.2976
620,-0.7614,-0.5619,0.3018
640,-0.7483,-0.5686,0.2919
660,-0.7502,-0.5651,0.2939
680,-0.7609,-0.5435,0.2722
700,-0.7755,-0.5598,0.2683
720,-0.8014,-0.5686,0.2943
740,-0.8248,-0.5287,0.275
760,-0.8185,-0.5084,0.2618
780,-0.8027,-0.5054,0.2386
800,-0.7938,-0.525,0.2321
820,-0.7872,-0.5416,0.2192
840,-0.787,-0.5436,0.2151
860,-0.7852,-0.556,0.2114
880,-0.7809,-0.5956,0.2021
900,-0.7737,-0.5436,0.1567
920,-0.7988,-0.5687,0.1501
940,-0.814,-0.5702,0.1287
960,-0.8243,-0.5591,0.1488
980,-0.8175,-0.5477,0.1412
1000,-0.8169,-0.5599,0.1484
1020,-0.8103,-0.5605,0.1492
1040,-0.8025,-0.5471,0.1569
1060,-0.8007,-0.5515,0.1605
1080,-0.7968,-0.568,0.1754
1100,-0.7889,-0.5454,0.1853
1120,-0.7933,-0.5505,0.1904
1140,-0.7982,-0.5297,0.1917
1160,-0.7903,-0.5515,0.1993
1180,-0.8094,-0.5186,0.1766
1200,-0.7861,-0.5601,0.1704
1220,-0.7151,-0.691,0.2151
1240,-0.7057,-0.6315,0.2076
1260,-0.7305,-0.6084,0.2208
1280,-0.7538,-0.5991,0.223
1300,-0.7522,-0.594,0.2391
1320,-0.7535,-0.6199,0.2684
1340,-0.7476,-0.6256,0.2791
1360,-0.7306,-0.6295,0.285
1380,-0.6982,-0.6483,0.2543
1400,-0.6841,-0.6688,0.2686
1420,-0.6892,-0.655,0.2964
1440,-0.71,-0.6322,0.3013
1460,-0.7213,-0.6222,0.3064
1480,-0.7302,-0.6155,0.3186
1500,-0.7402,-0.5912,0.3085
1520,-0.7086,-0.6088,0.3052
1540,-0.714,-0.6281,0.3022
1560,-0.7146,-0.6183,0.2936
1580,-0.7152,-0.6168,0.2885
1600,-0.7463,-0.6096,0.2937
1620,-0.7394,-0.5945,0.2852
1640,-0.7458,-0.5991,0.2806
1660,-0.7175,-0.6125,0.2621
1680,-0.7317,-0.601,0.2604
1700,-0.7438,-0.585,0.2321
1720,-0.739,-0.5804,0.1903
1740,-0.741,-0.6125,0.1903
1760,-0.7385,-0.6129,0.1934
1780,-0.7607,-0.6055,0.1787
1800,-0.7679,-0.5909,0.1604
1820,-0.7731,-0.6199,0.1481
1840,-0.7754,-0.6185,0.1312
1860,-0.7546,-0.6455,0.114
1880,-0.746,-0.6451,0.1243
1900,-0.766,-0.6198,0.1163
1920,-0.7872,-0.6122,0.1265
1940,-0.7788,-0.593,0.123
1960,-0.7865,-0.5917,0.146
1980,-0.7822,-0.5894,0.1454
2000,-0.7733,-0.6021,0.1444
2020,-0.7595,-0.5983,0.1399
2040,-0.7648,-0.6218,0.1537
2060,-0.7681,-0.6281,0.1644
2080,-0.7302,-0.6146,0.157
2100,-0.7007,-0.6458,0.1846
2120,-0.7095,-0.6699,0.2185
2140,-0.7339,-0.651,0.2281
2160,-0.7375,-0.6334,0.2451
2180,-0.7316,-0.6331,0.2502
2200,-0.7187,-0.6453,0.2646
2220,-0.7114,-0.649,0.2764
2240,-0.708,-0.6605,0.2836
2260,-0.6874,-0.6534,0.2573
2280,-0.6877,-0.6606,0.2661
2300,-0.7002,-0.646,0.2672
2320,-0.7206,-0.6532,0.28
2340,-0.7356,-0.639,0.2784
2360,-0.7504,-0.6177,0.2885
2380,-0.7231,-0.6088,0.2737
2400,-0.7236,-0.6176,0.2717
2420,-0.7151,-0.6016,0.234
2440,-0.7103,-0.6292,0.2128
2460,-0.7271,-0.6074,0.1752
2480,-0.7466,-0.629,0.1847
2500,-0.7551,-0.632,0.202
2520,-0.7837,-0.5656,0.1736
2540,-0.7849,-0.6063,0.1824
2560,-0.786,-0.5826,0.1646
2580,-0.7708,-0.589,0.1558
2600,-0.7599,-0.6066,0.1436
2620,-0.7545,-0.6276,0.1451
2640,-0.7668,-0.6208,0.1505
2660,-0.7693,-0.6196,0.1456
2680,-0.7706,-0.5984,0.1495
2700,-0.7634,-0.6129,0.1569
2720,-0.7714,-0.5931,0.1566
2740,-0.7788,-0.5989,0.1661
2760,-0.7797,-0.5803,0.1614
2780,-0.7844,-0.5713,0.1667
2800,-0.7651,-0.5961,0.1927
2820,-0.7565,-0.605,0.2109
2840,-0.7411,-0.6097,0.2036
2860,-0.7391,-0.6061,0.203
2880,-0.7329,-0.6497,0.2374
2900,-0.7239,-0.6354,0.2399
2920,-0.7177,-0.6523,0.2462
2940,-0.7031,-0.6666,0.2576
2960,-0.7102,-0.6678,0.2528
2980,-0.7106,-0.673,0.2595
3000,-0.7134,-0.6561,0.2634
3020,-0.7173,-0.6348,0.2632
3040,-0.7261,-0.6348,0.2679
3060,-0.7289,-0.6337,0.2689
3080,-0.7424,-0.6179,0.2754
3100,-0.7518,-0.5991,0.2693
3120,-0.7417,-0.6151,0.262
3140,-0.7476,-0.5992,0.2478
3160,-0.7388,-0.583,0.2208
3180,-0.7395,-0.6035,0.2274
3200,-0.7488,-0.5808,0.2107
3220,-0.7604,-0.5597,0.194
3240,-0.7711,-0.584,0.1969
3260,-0.8044,-0.541,0.1561
3280,-0.8022,-0.5718,0.1913
3300,-0.8003,-0.5437,0.1642
3320,-0.7826,-0.5793,0.1624
3340,-0.776,-0.5978,0.153
3360,-0.7886,-0.5856,0.1541
3380,-0.785,-0.5879,0.1552
3400,-0.7706,-0.5956,0.1648
3420,-0.7513,-0.63,0.1649
3440,-0.7572,-0.5936,0.1571
3460,-0.7566,-0.6321,0.1715
3480,-0.7476,-0.6241,0.1667
3500,-0.7424,-0.611,0.1772
3520,-0.7377,-0.637,0.196
3540,-0.7394,-0.6379,0.209
3560,-0.7522,-0.6163,0.2362
3580,-0.735,-0.6183,0.2429
3600,-0.7295,-0.6226,0.2629
3620,-0.7299,-0.6372,0.2926
3640,-0.7261,-0.6218,0.2858
3660,-0.729,-0.6163,0.2964
3680,-0.7285,-0.6066,0.2992
3700,-0.7391,-0.593,0.2914
3720,-0.7247,-0.6075,0.2946
3740,-0.7267,-0.6049,0.2899
3760,-0.7352,-0.5994,0.2822
3780,-0.7297,-0.5992,0.2682
3800,-0.7379,-0.627,0.278
3820,-0.7383,-0.5977,0.2483
3840,-0.7386,-0.6027,0.2245
3860,-0.7419,-0.5953,0.194
3880,-0.7474,-0.6261,0.1783
3900,-0.7362,-0.6642,0.1769
3920,-0.7385,-0.599,0.1572
3940,-0.7686,-0.5742,0.1647
3960,-0.769,-0.6315,0.1665
3980,-0.7646,-0.646,0.1581
4000,-0.7528,-0.6123,0.1307
4020,-0.7581,-0.6387,0.1451
4040,-0.7465,-0.6377,0.1454
4060,-0.7504,-0.6317,0.1644
4080,-0.745,-0.6333,0.1584
4100,-0.7455,-0.6268,0.1674
4120,-0.7389,-0.6348,0.1786
4140,-0.7317,-0.6338,0.1891
4160,-0.7292,-0.6377,0.196
4180,-0.7302,-0.6448,0.2031
4200,-0.7294,-0.6282,0.207
4220,-0.7234,-0.6332,0.2175
4240,-0.7271,-0.6299,0.2192
4260,-0.7222,-0.6528,0.2336
4280,-0.723,-0.63,0.2303
4300,-0.7166,-0.6261,0.2284
4320,-0.7148,-0.6517,0.2483
4340,-0.7213,-0.6346,0.2422
4360,-0.7106,-0.6538,0.2467
4380,-0.7102,-0.6599,0.2427
4400,-0.7035,-0.6493,0.2196
4420,-0.7074,-0.673,0.2335
4440,-0.71,-0.6558,0.2168
4460,-0.707,-0.6556,0.2056
4480,-0.7094,-0.6694,0.2058
4500,-0.7142,-0.665,0.2147
4520,-0.719,-0.6433,0.2157
4540,-0.7285,-0.6443,0.2163
4560,-0.7261,-0.6184,0.1908
4580,-0.7433,-0.6208,0.2058
4600,-0.7458,-0.625,0.1982
4620,-0.7585,-0.614,0.2086
4640,-0.7534,-0.6014,0.1891
4660,-0.7471,-0.5986,0.1797
4680,-0.7477,-0.636,0.1805
4700,-0.7487,-0.6251,0.1755
4720,-0.7534,-0.6255,0.1787
4740,-0.7544,-0.6101,0.1703
4760,-0.7522,-0.6166,0.1722
4780,-0.7573,-0.624,0.1816
4800,-0.7521,-0.6217,0.1721
4820,-0.7479,-0.6228,0.1802
4840,-0.7474,-0.6193,0.1805
4860,-0.7635,-0.61,0.1968
4880,-0.7515,-0.6006,0.1968
4900,-0.7551,-0.5923,0.1992
4920,-0.7465,-0.6167,0.1948
4940,-0.7489,-0.6216,0.2012
4960,-0.7544,-0.5914,0.2139
4980,-0.7607,-0.6031,0.2333
5000,-0.7596,-0.5934,0.2429
5020,-0.7498,-0.589,0.2418
5040,-0.7384,-0.6102,0.2452
5060,-0.7396,-0.6088,0.248
5080,-0.7401,-0.6105,0.2603
5100,-0.7345,-0.6177,0.26
5120,-0.7307,-0.6035,0.2584
5140,-0.7286,-0.6226,0.266
5160,-0.7355,-0.63,0.2736
5180,-0.7356,-0.6311,0.2783
5200,-0.7312,-0.6306,0.2635
5220,-0.7136,-0.6355,0.243
5240,-0.7208,-0.6018,0.2423
5260,-0.7522,-0.599,0.2675
5280,-0.7512,-0.5916,0.2511
5300,-0.7588,-0.5691,0.2355
5320,-0.7504,-0.5752,0.2235
5340,-0.7482,-0.5947,0.2034
5360,-0.7572,-0.5908,0.2036
5380,-0.7816,-0.5758,0.2128
5400,-0.8,-0.5609,0.2202
5420,-0.8007,-0.5364,0.2133
5440,-0.7992,-0.5509,0.2052
5460,-0.7952,-0.5692,0.1936
5480,-0.786,-0.568,0.1803
5500,-0.7728,-0.5807,0.1725
5520,-0.7727,-0.6025,0.1827
5540,-0.7747,-0.5919,0.1835
5560,-0.7799,-0.5751,0.1805
5580,-0.7787,-0.5745,0.1827
5600,-0.7771,-0.5757,0.1788
5620,-0.7739,-0.5797,0.1841
5640,-0.757,-0.611,0.1927
5660,-0.7474,-0.6157,0.1885
5680,-0.7327,-0.6257,0.1882
5700,-0.7368,-0.6407,0.2006
5720,-0.7385,-0.6499,0.2196
5740,-0.7225,-0.6381,0.2163
5760,-0.7214,-0.6562,0.2391
5780,-0.719,-0.6575,0.2441
5800,-0.7108,-0.6663,0.2542
5820,-0.7115,-0.6641,0.2542
5840,-0.7134,-0.6547,0.254
5860,-0.7175,-0.635,0.2517
5880,-0.7213,-0.6385,0.2581
5900,-0.7292,-0.6338,0.2571
5920,-0.7297,-0.6271,0.252
5940,-0.7244,-0.6234,0.2471
5960,-0.7312,-0.6149,0.2385
5980,-0.7314,-0.623,0.2278
6000,-0.7275,-0.6205,0.1953
6020,-0.7461,-0.6067,0.1993
6040,-0.7496,-0.6042,0.1959
6060,-0.7642,-0.6008,0.1835
6080,-0.7607,-0.6045,0.1707
6100,-0.756,-0.6219,0.1522
6120,-0.7749,-0.6077,0.1321
6140,-0.7595,-0.6144,0.14
6160,-0.7756,-0.6138,0.158
6180,-0.7656,-0.6346,0.1451
6200,-0.7588,-0.6183,0.1379
6220,-0.7561,-0.6215,0.1476
6240,-0.7656,-0.6139,0.1577
6260,-0.7666,-0.6057,0.165
6280,-0.7589,-0.5996,0.1715
6300,-0.7606,-0.6088,0.1708
6320,-0.7642,-0.5978,0.1785
6340,-0.7559,-0.6008,0.1929
6360,-0.7505,-0.6132,0.2074
6380,-0.7476,-0.587,0.1984
6400,-0.7358,-0.6326,0.2014
6420,-0.7261,-0.6594,0.2213
6440,-0.7266,-0.6333,0.2223
6460,-0.7269,-0.6357,0.2311
6480,-0.7294,-0.642,0.2527
6500,-0.7297,-0.6444,0.2566
6520,-0.7268,-0.6329,0.2678
6540,-0.7222,-0.6382,0.2711
6560,-0.7229,-0.6226,0.2711
6580,-0.7166,-0.6298,0.269
6600,-0.7161,-0.629,0.2694
6620,-0.7179,-0.6299,0.2721
6640,-0.7285,-0.6223,0.2764
6660,-0.7284,-0.6129,0.2716
6680,-0.7354,-0.6163,0.2803
6700,-0.7465,-0.5903,0.2668
6720,-0.7461,-0.5752,0.236
6740,-0.7568,-0.5612,0.2095
6760,-0.7531,-0.6207,0.2136
6780,-0.7539,-0.6201,0.2052
6800,-0.7523,-0.584,0.2012
6820,-0.7452,-0.6044,0.186
6840,-0.757,-0.6047,0.1818
6860,-0.7808,-0.603,0.1853
6880,-0.7811,-0.5795,0.1823
6900,-0.7775,-0.5699,0.1776
6920,-0.7781,-0.5863,0.1752
6940,-0.7865,-0.59,0.1763
6960,-0.7772,-0.5864,0.1666
6980,-0.775,-0.5929,0.1638
7000,-0.7747,-0.5905,0.1676
7020,-0.7734,-0.5918,0.1611
7040,-0.7679,-0.5981,0.165
7060,-0.7668,-0.6017,0.1614
7080,-0.7538,-0.6075,0.1626
7100,-0.7592,-0.6151,0.1772
7120,-0.7509,-0.6298,0.1919
7140,-0.7473,-0.6053,0.1561
7160,-0.7322,-0.6165,0.1737
7180,-0.7233,-0.6492,0.2089
7200,-0.7288,-0.6382,0.2186
7220,-0.72,-0.6541,0.2386
7240,-0.7224,-0.6439,0.2445
7260,-0.7163,-0.6567,0.2665
7280,-0.7101,-0.6465,0.269
7300,-0.7063,-0.6586,0.2682
7320,-0.7026,-0.6603,0.2659
7340,-0.7075,-0.6538,0.2688
7360,-0.7198,-0.6399,0.2749
7380,-0.7292,-0.6296,0.2778
7400,-0.7296,-0.6176,0.2766
7420,-0.7389,-0.5981,0.2694
7440,-0.7457,-0.6129,0.2744
7460,-0.7323,-0.6147,0.2468
7480,-0.7263,-0.6208,0.2413
7500,-0.7408,-0.6138,0.2357
7520,-0.7368,-0.6268,0.2332
7540,-0.7357,-0.5953,0.2189
7560,-0.7292,-0.5806,0.1819
7580,-0.7463,-0.5903,0.1787
7600,-0.775,-0.6143,0.198
7620,-0.7811,-0.5857,0.1782
7640,-0.7754,-0.5713,0.1705
7660,-0.7604,-0.6289,0.162
7680,-0.7588,-0.6156,0.1486
7700,-0.7579,-0.6223,0.1405
7720,-0.7621,-0.6194,0.1479
7740,-0.7572,-0.6224,0.1396
7760,-0.7618,-0.6263,0.1451
7780,-0.7612,-0.6169,0.1459
7800,-0.766,-0.6145,0.1543
7820,-0.7551,-0.6099,0.149
7840,-0.7468,-0.64,0.1661
7860,-0.74,-0.6183,0.1593
7880,-0.7433,-0.6277,0.1715
7900,-0.7334,-0.6228,0.1865
7920,-0.7311,-0.6177,0.1982
7940,-0.7367,-0.624,0.2159
7960,-0.729,-0.6329,0.2203
7980,-0.7358,-0.6256,0.2532
8000,-0.7347,-0.6135,0.2711
8020,-0.7184,-0.6409,0.281
8040,-0.7097,-0.6637,0.2837
8060,-0.6967,-0.657,0.2727
8080,-0.6953,-0.6581,0.2688
8100,-0.7042,-0.6658,0.2806
8120,-0.7302,-0.6461,0.2858
8140,-0.7313,-0.62,0.2819
8160,-0.7275,-0.6138,0.272
8180,-0.7249,-0.6134,0.254
8200,-0.7378,-0.6154,0.2559
8220,-0.7377,-0.603,0.2291
8240,-0.7393,-0.5902,0.1984
8260,-0.7395,-0.6101,0.1945
8280,-0.7581,-0.5511,0.1616
8300,-0.7866,-0.6167,0.2039
8320,-0.7861,-0.5636,0.1781
8340,-0.7886,-0.587,0.1774
8360,-0.7563,-0.6082,0.1542
8380,-0.755,-0.6122,0.1425
8400,-0.7723,-0.6183,0.1487
8420,-0.774,-0.6082,0.1484
8440,-0.7631,-0.6062,0.1418
8460,-0.756,-0.627,0.1444
8480,-0.7593,-0.6218,0.1351
8500,-0.7556,-0.6219,0.1367
8520,-0.7645,-0.6122,0.134
8540,-0.7676,-0.6125,0.1497
8560,-0.759,-0.6434,0.1689
8580,-0.7489,-0.6073,0.1526
8600,-0.7426,-0.6013,0.1758
8620,-0.7434,-0.6326,0.1958
8640,-0.7332,-0.6171,0.2185
8660,-0.7317,-0.6097,0.2352
8680,-0.7231,-0.6383,0.2628
8700,-0.7163,-0.6344,0.2708
8720,-0.715,-0.6578,0.2894
8740,-0.7029,-0.6559,0.27
8760,-0.7018,-0.6644,0.2784
8780,-0.7001,-0.6506,0.2666
8800,-0.7042,-0.6511,0.2665
8820,-0.7155,-0.6616,0.2703
8840,-0.7157,-0.6536,0.2585
8860,-0.7184,-0.6458,0.2518
8880,-0.7134,-0.6425,0.241
8900,-0.7192,-0.635,0.2207
8920,-0.7206,-0.6447,0.2137
8940,-0.7183,-0.6404,0.1858
8960,-0.7268,-0.6282,0.1697
8980,-0.7317,-0.6543,0.1846
9000,-0.7472,-0.6074,0.1693
9020,-0.7483,-0.609,0.1548
9040,-0.7535,-0.6367,0.1488
9060,-0.7595,-0.616,0.1469
9080,-0.7656,-0.6149,0.1403
9100,-0.7654,-0.5999,0.1383
9120,-0.7628,-0.6232,0.1467
9140,-0.766,-0.625,0.15
9160,-0.7607,-0.616,0.1498
9180,-0.762,-0.6112,0.1641
9200,-0.7626,-0.6017,0.1608
9220,-0.7549,-0.6053,0.1681
9240,-0.7471,-0.6412,0.179
9260,-0.746,-0.6077,0.1844
9280,-0.7391,-0.6375,0.1947
9300,-0.7382,-0.6102,0.1945
9320,-0.7418,-0.6161,0.2092
9340,-0.745,-0.6182,0.2145
9360,-0.7461,-0.6052,0.2137
9380,-0.7443,-0.6328,0.2349
9400,-0.7209,-0.6302,0.2102
9420,-0.7202,-0.673,0.231
9440,-0.7085,-0.6678,0.2273
9460,-0.7115,-0.6582,0.2345
9480,-0.7163,-0.6527,0.2367
9500,-0.7167,-0.6567,0.2443
9520,-0.7217,-0.6444,0.2451
9540,-0.7267,-0.6509,0.2577
9560,-0.7258,-0.6305,0.2522
9580,-0.7183,-0.6177,0.239
9600,-0.7155,-0.6587,0.2389
9620,-0.7191,-0.6417,0.2225
9640,-0.7124,-0.6298,0.2131
9660,-0.731,-0.6213,0.2273
9680,-0.743,-0.5781,0.215
9700,-0.7567,-0.5984,0.2292
9720,-0.7546,-0.5983,0.2008
9740,-0.7604,-0.5997,0.205
9760,-0.7543,-0.582,0.1782
9780,-0.7653,-0.6198,0.1686
9800,-0.7725,-0.6244,0.1768
9820,-0.7699,-0.6141,0.1754
9840,-0.7623,-0.605,0.1697
9860,-0.7563,-0.6025,0.1667
9880,-0.7789,-0.5988,0.1724
9900,-0.7798,-0.592,0.1741
9920,-0.7734,-0.5916,0.173
9940,-0.7676,-0.5955,0.1692
9960,-0.7618,-0.5939,0.1689
9980,-0.7695,-0.5912,0.1747
10000,-0.7708,-0.5768,0.177
10020,-0.7683,-0.5925,0.186
10040,-0.7551,-0.6003,0.1927
10060,-0.7489,-0.6174,0.1871
10080,-0.7375,-0.605,0.177
10100,-0.739,-0.6372,0.182
10120,-0.7533,-0.6187,0.1902
10140,-0.7369,-0.6576,0.2192
10160,-0.7261,-0.6608,0.2343
10180,-0.722,-0.6598,0.2543
10200,-0.7246,-0.6561,0.2648
10220,-0.7191,-0.6613,0.2649
10240,-0.703,-0.6477,0.2545
10260,-0.6996,-0.663,0.2686
10280,-0.7036,-0.6324,0.2668
10300,-0.7081,-0.631,0.2737
10320,-0.7083,-0.6288,0.2742
10340,-0.7051,-0.62,0.277
10360,-0.7094,-0.6266,0.2784
10380,-0.7059,-0.6511,0.2802
10400,-0.728,-0.6483,0.287
10420,-0.7606,-0.6296,0.2909
10440,-0.7771,-0.5997,0.2939
10460,-0.7557,-0.5712,0.2775
10480,-0.7455,-0.5834,0.2633
10500,-0.741,-0.5854,0.2482
10520,-0.7506,-0.5947,0.2358
10540,-0.7531,-0.5947,0.2057
10560,-0.7393,-0.636,0.2065
10580,-0.7455,-0.5583,0.1682
10600,-0.7611,-0.5973,0.1808
10620,-0.7714,-0.5957,0.1632
10640,-0.7771,-0.6024,0.1594
10660,-0.7625,-0.6244,0.1353
10680,-0.7625,-0.639,0.1272
10700,-0.7631,-0.6108,0.1177
10720,-0.7756,-0.6289,0.1287
10740,-0.7789,-0.6195,0.1345
10760,-0.7684,-0.6091,0.1217
10780,-0.7679,-0.624,0.1353
10800,-0.7617,-0.6146,0.152
10820,-0.7662,-0.5961,0.1458
10840,-0.7599,-0.6106,0.1472
10860,-0.7489,-0.6261,0.1757
10880,-0.7463,-0.6195,0.189
10900,-0.7384,-0.585,0.1837
10920,-0.7505,-0.6005,0.2163
10940,-0.7454,-0.6078,0.2318
10960,-0.7314,-0.6196,0.2494
10980,-0.7241,-0.6182,0.2683
11000,-0.7129,-0.652,0.2908
11020,-0.7048,-0.6498,0.2821
11040,-0.698,-0.6627,0.2931
11060,-0.6951,-0.6693,0.2949
11080,-0.6852,-0.6638,0.2869
11100,-0.6899,-0.6744,0.2852
11120,-0.7057,-0.6583,0.2876
11140,-0.7179,-0.6475,0.2885
11160,-0.7389,-0.6221,0.2993
11180,-0.7401,-0.5991,0.2812
11200,-0.722,-0.6007,0.2644
11220,-0.7244,-0.6295,0.2644
11240,-0.7236,-0.6232,0.2476
11260,-0.7091,-0.6337,0.2244
11280,-0.7036,-0.6035,0.1884
11300,-0.7246,-0.5941,0.2094
11320,-0.719,-0.6296,0.2258
11340,-0.7537,-0.593,0.1814
11360,-0.7501,-0.5953,0.1665
11380,-0.7687,-0.5786,0.121
11400,-0.8146,-0.6355,0.1436
11420,-0.7775,-0.6515,0.153
11440,-0.762,-0.5901,0.0896
11460,-0.736,-0.6571,0.1301
11480,-0.7927,-0.6055,0.1045
11500,-0.7771,-0.6323,0.1132
11520,-0.7588,-0.6573,0.1056
11540,-0.785,-0.6243,0.1206
11560,-0.7794,-0.6477,0.0793
11580,-0.7704,-0.609,0.114
11600,-0.7595,-0.614,0.1292
11620,-0.7654,-0.6317,0.1337
11640,-0.7739,-0.5826,0.1896
11660,-0.7994,-0.573,0.1588
11680,-0.7698,-0.6646,0.1252
11700,-0.7515,-0.7836,0.2135
11720,-0.7794,-0.6222,0.2015
11740,-0.7975,-0.5577,0.3381
11760,-0.7305,-0.5432,0.3387
11780,-0.7124,-0.5322,0.2854
11800,-0.7708,-0.4717,0.3246
11820,-0.7605,-0.5083,0.402
11840,-0.7201,-0.3752,0.4756
11860,-0.8062,-0.3304,0.5641
11880,-0.7079,-0.3396,0.5834
11900,-0.7009,-0.2798,0.5956
11920,-0.6643,-0.3035,0.6057
11940,-0.7094,-0.3759,0.6321
11960,-0.6746,-0.4196,0.5375
11980,-0.6581,-0.4702,0.5706
12000,-0.6599,-0.4884,0.5337
12020,-0.6573,-0.458,0.5453
12040,-0.661,-0.4558,0.5381
12060,-0.6779,-0.4858,0.5323
12080,-0.6775,-0.5129,0.5363
12100,-0.6653,-0.4633,0.5475
12120,-0.6667,-0.4355,0.5234
12140,-0.6724,-0.504,0.5161
12160,-0.652,-0.5344,0.5282
12180,-0.6722,-0.5016,0.5177
12200,-0.6952,-0.451,0.5223
12220,-0.7141,-0.4542,0.5007
12240,-0.6631,-0.4585,0.4968
12260,-0.6808,-0.5211,0.4756
12280,-0.6246,-0.5067,0.4486
12300,-0.6246,-0.5514,0.448
12320,-0.6663,-0.5062,0.5009
12340,-0.7709,-0.4923,0.5771
12360,-0.76,-0.4683,0.5447
12380,-0.7526,-0.4805,0.525
12400,-0.6958,-0.4038,0.4637
12420,-0.6786,-0.4243,0.4689
12440,-0.7275,-0.4943,0.473
12460,-0.8113,-0.5061,0.4244
12480,-0.7875,-0.4331,0.4694
12500,-0.8864,-0.4771,0.4257
12520,-0.6979,-0.429,0.3206
12540,-0.7023,-0.4832,0.29
12560,-0.804,-0.5077,0.3928
12580,-0.8165,-0.4238,0.2773
12600,-0.754,-0.561,0.3071
12620,-0.7555,-0.6021,0.2612
12640,-0.8398,-0.6754,0.3412
12660,-0.7603,-0.5474,0.2137
12680,-0.7372,-0.5272,0.1678
12700,-0.7666,-0.5527,0.1968
12720,-0.8016,-0.6112,0.1838
12740,-0.8082,-0.5868,0.1653
12760,-0.7822,-0.5712,0.1359
12780,-0.7759,-0.618,0.1407
12800,-0.7725,-0.6222,0.1292
12820,-0.7754,-0.609,0.1311
12840,-0.7635,-0.6267,0.1088
12860,-0.76,-0.6296,0.1317
12880,-0.7511,-0.6306,0.1406
12900,-0.7509,-0.6152,0.1221
12920,-0.7584,-0.6196,0.1433
12940,-0.7699,-0.5909,0.1548
12960,-0.7694,-0.5963,0.1592
12980,-0.7555,-0.6111,0.1599
13000,-0.7631,-0.6069,0.174
13020,-0.7703,-0.5873,0.1622
13040,-0.7793,-0.5824,0.1741
13060,-0.7706,-0.6085,0.162
13080,-0.7474,-0.6512,0.2167
13100,-0.7416,-0.6665,0.2555
13120,-0.7375,-0.6101,0.2603
13140,-0.7657,-0.5419,0.2751
13160,-0.7574,-0.5593,0.3042
13180,-0.7561,-0.5743,0.3135
13200,-0.7532,-0.5914,0.3209
13220,-0.7261,-0.5907,0.3062
13240,-0.7369,-0.5824,0.3086
13260,-0.7394,-0.5795,0.3003
13280,-0.7439,-0.5637,0.2854
13300,-0.7512,-0.5665,0.2823
13320,-0.7712,-0.5831,0.2841
13340,-0.7899,-0.5575,0.2745
13360,-0.8009,-0.5455,0.2645
13380,-0.7976,-0.5269,0.2432
13400,-0.7888,-0.5419,0.2297
13420,-0.7836,-0.5601,0.2198
13440,-0.7797,-0.5801,0.2153
13460,-0.7659,-0.5812,0.2051
13480,-0.7639,-0.5688,0.1923
13500,-0.7726,-0.5609,0.182
13520,-0.7833,-0.5596,0.1759
13540,-0.8116,-0.5753,0.191
13560,-0.8088,-0.5645,0.1768
13580,-0.7948,-0.5535,0.1692
13600,-0.7908,-0.5729,0.1707
13620,-0.7903,-0.5721,0.1766
13640,-0.7953,-0.549,0.1743
13660,-0.7947,-0.5726,0.1902
13680,-0.7838,-0.5554,0.1716
13700,-0.7742,-0.5911,0.1881
13720,-0.7659,-0.5901,0.1941
13740,-0.7623,-0.5935,0.1938
13760,-0.7622,-0.5941,0.1915
13780,-0.7609,-0.5964,0.1957
13800,-0.7651,-0.5811,0.2021
13820,-0.7708,-0.5801,0.1971
13840,-0.7734,-0.5897,0.2087
13860,-0.7688,-0.5861,0.2059
13880,-0.7628,-0.6019,0.2167
13900,-0.761,-0.5944,0.218
13920,-0.7598,-0.5974,0.2206
13940,-0.7549,-0.6189,0.2307
13960,-0.7478,-0.6249,0.235
13980,-0.7413,-0.614,0.2325
14000,-0.7542,-0.6005,0.2274
14020,-0.7612,-0.6042,0.2252
14040,-0.7606,-0.6063,0.2239
14060,-0.759,-0.6003,0.2212
14080,-0.7659,-0.5833,0.2184
14100,-0.777,-0.5708,0.2135
14120,-0.7863,-0.566,0.2178
14140,-0.7911,-0.5574,0.2142
14160,-0.7817,-0.5479,0.1945
14180,-0.7903,-0.5615,0.1895
14200,-0.7881,-0.5713,0.1785
14220,-0.782,-0.5963,0.1714
14240,-0.7668,-0.6008,0.1621
14260,-0.76,-0.6031,0.1643
14280,-0.7695,-0.5996,0.1639
14300,-0.7764,-0.5984,0.174
14320,-0.7765,-0.592,0.1732
14340,-0.7788,-0.5912,0.1703
14360,-0.7822,-0.5898,0.1765
14380,-0.7751,-0.5908,0.1759
14400,-0.7734,-0.5962,0.1841
14420,-0.7751,-0.5807,0.1907
14440,-0.777,-0.5759,0.2
14460,-0.7811,-0.5804,0.2111
14480,-0.7778,-0.5721,0.2184
14500,-0.774,-0.5768,0.224
14520,-0.7723,-0.5782,0.2322
14540,-0.7649,-0.5762,0.2319
14560,-0.7701,-0.5773,0.2357
14580,-0.7703,-0.5701,0.2343
14600,-0.7737,-0.575,0.2318
14620,-0.7704,-0.5853,0.2369
14640,-0.7673,-0.5828,0.2325
14660,-0.7727,-0.5724,0.2236
14680,-0.7755,-0.5671,0.223
14700,-0.7836,-0.5646,0.219
14720,-0.7739,-0.5837,0.2241
14740,-0.7714,-0.583,0.2148
14760,-0.7695,-0.563,0.2002
14780,-0.7817,-0.5698,0.1907
14800,-0.7823,-0.577,0.1851
14820,-0.7792,-0.5919,0.1764
14840,-0.7819,-0.5848,0.173
14860,-0.7804,-0.5792,0.1759
14880,-0.7849,-0.5784,0.179
14900,-0.7871,-0.5803,0.1787
14920,-0.7903,-0.5577,0.1725
14940,-0.7885,-0.5623,0.1841
14960,-0.7867,-0.5671,0.1748
14980,-0.7908,-0.5676,0.1722
15000,-0.7867,-0.5785,0.1664
15020,-0.7836,-0.5645,0.1643
15040,-0.7893,-0.5596,0.1799
15060,-0.7864,-0.5684,0.1895
15080,-0.7831,-0.5677,0.1981
15100,-0.7762,-0.5824,0.2054
15120,-0.7632,-0.5854,0.2042
15140,-0.7565,-0.6058,0.217
15160,-0.7526,-0.6006,0.2314
15180,-0.7592,-0.593,0.2518
15200,-0.7623,-0.5792,0.2589
15220,-0.7623,-0.5929,0.2678
15240,-0.7606,-0.5746,0.2765
15260,-0.7574,-0.5773,0.2645
15280,-0.7555,-0.5903,0.2604
15300,-0.754,-0.5856,0.2433
15320,-0.7593,-0.5902,0.2384
15340,-0.766,-0.5936,0.2257
15360,-0.7748,-0.5918,0.2187
15380,-0.777,-0.5769,0.2062
15400,-0.778,-0.5706,0.1998
15420,-0.7765,-0.5724,0.187
15440,-0.7863,-0.5736,0.1846
15460,-0.7874,-0.5626,0.1659
15480,-0.7947,-0.5787,0.1534
15500,-0.7773,-0.6018,0.1399
15520,-0.7616,-0.6243,0.1287
15540,-0.7537,-0.624,0.1311
15560,-0.7673,-0.6162,0.1392
15580,-0.7817,-0.6007,0.1494
15600,-0.7841,-0.583,0.152
15620,-0.787,-0.5802,0.1572
15640,-0.791,-0.5742,0.1632
15660,-0.7833,-0.5745,0.1604
15680,-0.777,-0.5903,0.168
15700,-0.7726,-0.5891,0.1788
15720,-0.7721,-0.5846,0.2
15740,-0.7783,-0.5797,0.2201
15760,-0.7766,-0.5886,0.2518
15780,-0.7697,-0.5839,0.2704
15800,-0.7695,-0.5774,0.3101
15820,-0.7604,-0.5697,0.2969
15840,-0.765,-0.5511,0.2799
15860,-0.7611,-0.5479,0.2692
15880,-0.776,-0.5536,0.2684
15900,-0.7771,-0.5396,0.2639
15920,-0.7812,-0.5588,0.2672
15940,-0.7863,-0.5549,0.266
15960,-0.7937,-0.5228,0.2548
15980,-0.7985,-0.5267,0.2518
16000,-0.7972,-0.531,0.2349
16020,-0.7888,-0.5619,0.214
16040,-0.7803,-0.5679,0.2031
16060,-0.7847,-0.5621,0.1847
16080,-0.7823,-0.5673,0.1892
16100,-0.7916,-0.5723,0.1847
16120,-0.7916,-0.5641,0.1711
16140,-0.7931,-0.5641,0.1672
16160,-0.7961,-0.5704,0.1825
16180,-0.8013,-0.5502,0.1755
16200,-0.8022,-0.5604,0.1737
16220,-0.7986,-0.5599,0.1721
16240,-0.7979,-0.5442,0.1807
16260,-0.8011,-0.5475,0.1743
16280,-0.7999,-0.551,0.1859
16300,-0.7998,-0.5475,0.1868
16320,-0.795,-0.5411,0.1877
16340,-0.7919,-0.5553,0.1998
16360,-0.793,-0.5397,0.1964
16380,-0.7869,-0.5591,0.1997
16400,-0.787,-0.5605,0.2068
16420,-0.7755,-0.5925,0.2469
16440,-0.7758,-0.5955,0.2765
16460,-0.7776,-0.5582,0.2698
16480,-0.7567,-0.5723,0.2959
16500,-0.7632,-0.5566,0.2861
16520,-0.769,-0.5483,0.2988
16540,-0.755,-0.5665,0.296
16560,-0.7614,-0.5659,0.2888
16580,-0.7681,-0.5618,0.2872
16600,-0.766,-0.5631,0.2799
16620,-0.7704,-0.562,0.2729
16640,-0.7798,-0.5615,0.2601
16660,-0.7843,-0.5603,0.2556
16680,-0.7849,-0.5441,0.2336
16700,-0.7928,-0.5509,0.2356
16720,-0.7852,-0.5555,0.2152
16740,-0.7816,-0.5752,0.2078
16760,-0.7751,-0.5801,0.1932
16780,-0.7727,-0.5806,0.1719
16800,-0.7793,-0.5706,0.1692
16820,-0.7924,-0.5706,0.1614
16840,-0.799,-0.5653,0.1647
16860,-0.7971,-0.5634,0.1614
16880,-0.8005,-0.573,0.1636
16900,-0.7906,-0.5616,0.1547
16920,-0.7971,-0.5676,0.1592
16940,-0.7983,-0.5549,0.1648
16960,-0.8009,-0.554,0.1692
16980,-0.7958,-0.5515,0.1664
17000,-0.7938,-0.5562,0.1709
17020,-0.7943,-0.5615,0.1859
17040,-0.7887,-0.5642,0.1893
17060,-0.7792,-0.5496,0.2024
17080,-0.7787,-0.5417,0.1866
17100,-0.7805,-0.5729,0.1848
17120,-0.7797,-0.5942,0.1969
17140,-0.7786,-0.571,0.2292
17160,-0.7742,-0.5937,0.2495
17180,-0.7677,-0.6053,0.2767
17200,-0.7505,-0.5989,0.3051
17220,-0.7659,-0.5785,0.3093
17240,-0.7598,-0.5818,0.3175
17260,-0.7461,-0.5822,0.3069
17280,-0.7456,-0.5883,0.3058
17300,-0.7432,-0.5826,0.3129
17320,-0.7323,-0.5695,0.2943
17340,-0.7219,-0.5656,0.2673
17360,-0.7238,-0.5793,0.25
17380,-0.7698,-0.5677,0.2543
17400,-0.8353,-0.5654,0.2743
17420,-0.8544,-0.5112,0.2742
17440,-0.8157,-0.491,0.2417
17460,-0.7914,-0.5238,0.2163
17480,-0.7823,-0.5746,0.2137
17500,-0.7751,-0.5677,0.1926
17520,-0.7743,-0.576,0.1761
17540,-0.7815,-0.5651,0.1694
17560,-0.7972,-0.5544,0.1826
17580,-0.8103,-0.5436,0.1639
17600,-0.8138,-0.5574,0.1594
17620,-0.7966,-0.5654,0.161
17640,-0.7957,-0.5717,0.1617
17660,-0.7979,-0.5518,0.1531
17680,-0.8058,-0.5509,0.1659
17700,-0.8049,-0.5552,0.1672
17720,-0.7933,-0.5491,0.1609
17740,-0.7919,-0.5651,0.1805
17760,-0.7911,-0.5695,0.174
17780,-0.7897,-0.5585,0.1757
17800,-0.7875,-0.5585,0.1926
17820,-0.7894,-0.5583,0.2012
17840,-0.7891,-0.5591,0.2128
17860,-0.7825,-0.5551,0.2208
17880,-0.7804,-0.5619,0.2279
17900,-0.7823,-0.5688,0.2507
17920,-0.7809,-0.5704,0.2875
17940,-0.7764,-0.5652,0.2932
17960,-0.7736,-0.562,0.3057
17980,-0.7715,-0.5498,0.2997
18000,-0.7637,-0.5562,0.292
18020,-0.7633,-0.5566,0.2828
18040,-0.762,-0.5569,0.2771
18060,-0.7705,-0.5565,0.2722
18080,-0.7728,-0.5543,0.2692
18100,-0.7902,-0.553,0.2654
18120,-0.8015,-0.5323,0.2517
18140,-0.802,-0.535,0.2433
18160,-0.7937,-0.524,0.2065
18180,-0.7902,-0.5491,0.1909
18200,-0.797,-0.5685,0.1808
18220,-0.786,-0.5604,0.1562
18240,-0.7902,-0.5798,0.176
18260,-0.792,-0.5771,0.1675
18280,-0.8062,-0.5648,0.1722
18300,-0.8016,-0.5494,0.1631
18320,-0.8075,-0.549,0.1602
18340,-0.7977,-0.5679,0.1686
18360,-0.8004,-0.5536,0.163
18380,-0.7902,-0.5631,0.1566
18400,-0.7866,-0.5686,0.1617
18420,-0.7953,-0.5653,0.1636
18440,-0.798,-0.5703,0.1709
18460,-0.7855,-0.568,0.1736
18480,-0.7811,-0.5774,0.1967
18500,-0.781,-0.5779,0.2198
18520,-0.7849,-0.5763,0.2284
18540,-0.781,-0.5647,0.2448
18560,-0.7747,-0.5498,0.2456
18580,-0.7739,-0.552,0.2737
18600,-0.774,-0.5638,0.2836
18620,-0.7637,-0.5737,0.2998
18640,-0.76,-0.5673,0.2992
18660,-0.7516,-0.5802,0.3009
18680,-0.7594,-0.5728,0.297
18700,-0.7579,-0.5559,0.281
18720,-0.7623,-0.5667,0.2788
18740,-0.7693,-0.5725,0.2657
18760,-0.78,-0.5598,0.2534
18780,-0.792,-0.5522,0.238
18800,-0.7965,-0.5457,0.2311
18820,-0.7927,-0.5449,0.2162
18840,-0.781,-0.5688,0.2097
18860,-0.7733,-0.5735,0.1965
18880,-0.7677,-0.5659,0.1718
18900,-0.7836,-0.5624,0.1598
18920,-0.7968,-0.5648,0.1703
18940,-0.8085,-0.5566,0.1506
18960,-0.8088,-0.5518,0.1538
18980,-0.7992,-0.5778,0.1472
19000,-0.7869,-0.5793,0.1414
19020,-0.7988,-0.5726,0.1454
19040,-0.8124,-0.5626,0.1456
19060,-0.8026,-0.5446,0.149
19080,-0.8002,-0.5616,0.1598
19100,-0.7968,-0.5558,0.1628
19120,-0.7974,-0.5557,0.1639
19140,-0.8013,-0.5586,0.1749
19160,-0.7869,-0.5696,0.1787
19180,-0.7804,-0.5574,0.1862
19200,-0.7701,-0.579,0.1952
19220,-0.7727,-0.584,0.2239
19240,-0.7719,-0.5846,0.2484
19260,-0.7692,-0.5873,0.2814
19280,-0.7593,-0.58,0.2943
19300,-0.7731,-0.5457,0.298
19320,-0.7719,-0.5344,0.2969
19340,-0.7733,-0.5364,0.2993
19360,-0.7654,-0.5657,0.2926
19380,-0.7552,-0.5717,0.2841
19400,-0.7632,-0.5736,0.2856
19420,-0.7834,-0.5469,0.2745
19440,-0.7861,-0.5476,0.2666
19460,-0.7803,-0.5659,0.2532
19480,-0.7833,-0.5651,0.2301
19500,-0.782,-0.5599,0.2167
19520,-0.7783,-0.5743,0.1967
19540,-0.7697,-0.58,0.1782
19560,-0.7814,-0.5929,0.1758
19580,-0.7795,-0.5945,0.16
19600,-0.7699,-0.5724,0.1543
19620,-0.7902,-0.5906,0.1471
19640,-0.8005,-0.5887,0.1353
19660,-0.7881,-0.5984,0.125
19680,-0.7898,-0.5903,0.1205
19700,-0.7815,-0.6003,0.1221
19720,-0.787,-0.572,0.1354
19740,-0.7894,-0.5848,0.1434
19760,-0.7996,-0.5642,0.1514
19780,-0.7932,-0.5807,0.1628
19800,-0.7882,-0.5883,0.173
19820,-0.7778,-0.568,0.1737
19840,-0.7848,-0.5605,0.1702
19860,-0.7896,-0.5596,0.1725
19880,-0.7853,-0.5654,0.1705
19900,-0.7823,-0.5638,0.1752
19920,-0.787,-0.5751,0.1785
19940,-0.7861,-0.566,0.199
19960,-0.7621,-0.5988,0.2064
19980,-0.7611,-0.6121,0.2401
20000,-0.7581,-0.6074,0.2589
20020,-0.7545,-0.6105,0.2675
20040,-0.7523,-0.6077,0.2648
20060,-0.7435,-0.5975,0.2625
20080,-0.7593,-0.5945,0.2644
20100,-0.7664,-0.5824,0.2566
20120,-0.777,-0.5754,0.2546
20140,-0.7766,-0.5613,0.2439
20160,-0.7867,-0.5613,0.2391
20180,-0.7922,-0.564,0.2377
20200,-0.7821,-0.5527,0.2319
20220,-0.7808,-0.554,0.2262
20240,-0.7827,-0.5696,0.2277
20260,-0.7672,-0.5565,0.2018
20280,-0.7788,-0.5437,0.1833
20300,-0.8018,-0.5396,0.181
20320,-0.8145,-0.54,0.1858
20340,-0.8146,-0.538,0.1595
20360,-0.813,-0.5389,0.1559
20380,-0.817,-0.5444,0.1692
20400,-0.829,-0.5283,0.1567
20420,-0.8214,-0.5482,0.1591
20440,-0.808,-0.5527,0.1544
20460,-0.8007,-0.5579,0.1522
20480,-0.8074,-0.5463,0.1542
20500,-0.8435,-0.4672,0.2185
20520,-0.8608,-0.464,0.1921
20540,-0.842,-0.5006,0.1947
20560,-0.8379,-0.4807,0.1934
20580,-0.8503,-0.5031,0.2001
20600,-0.871,-0.4216,0.2012
20620,-0.7823,-0.5825,0.2495
20640,-0.8323,-0.4769,0.2506
20660,-0.8221,-0.4924,0.2915
20680,-0.8336,-0.5005,0.2625
20700,-0.8348,-0.5159,0.2211
20720,-0.8667,-0.5061,0.2054
20740,-0.8293,-0.4255,0.1936
20760,-0.9506,-0.2971,0.1428
20780,-0.8975,-0.3767,0.2485
20800,-0.7942,-0.4902,0.2924
20820,-0.7542,-0.4467,0.2739
20840,-0.7502,-0.4143,0.2693
20860,-0.7947,-0.4109,0.4142
20880,-0.9269,-0.527,0.4941
20900,-0.9744,-0.3114,0.5072
20920,-0.8102,-0.2145,0.3907
20940,-0.7389,-0.3365,0.4349
20960,-0.7754,-0.3699,0.4626
20980,-0.8201,-0.4478,0.4758
21000,-0.764,-0.3451,0.3722
21020,-0.7656,-0.3335,0.4788
21040,-0.7697,-0.3726,0.4531
21060,-0.839,-0.3094,0.4127
21080,-0.8579,-0.1512,0.4493
21100,-0.8953,-0.202,0.4248
21120,-0.932,-0.1748,0.5134
21140,-1.0149,-0.1611,0.2712
21160,-0.9362,-0.2625,0.5762
21180,-0.8379,-0.2762,0.354
21200,-0.8654,-0.2097,0.3683
21220,-0.9799,-0.1366,0.3165
21240,-0.9252,-0.1134,0.3894
21260,-0.9275,-0.0667,0.3682
21280,-0.8367,-0.1038,0.2726
21300,-0.8191,-0.1226,0.3431
21320,-0.848,-0.0295,0.3274
21340,-0.9048,0.0118,0.3354
21360,-0.8545,-0.0316,0.2362
21380,-0.8917,-0.0378,0.1721
21400,-1.0739,-0.0662,0.178
21420,-0.85,-0.1501,0.0621
21440,-0.925,-0.2051,0.1978
21460,-1.1431,-0.5825,0.1426
21480,-0.9155,-0.5392,0.1403
21500,-1.2229,-0.2661,0.1815
21520,-0.764,-0.5581,0.3167
21540,-0.9149,-0.3082,0.172
21560,-0.8572,-0.3052,0.1506
21580,-0.7922,-0.5837,0.3186
21600,-0.7284,-0.4916,0.2249
21620,-0.8628,-0.4657,0.2881
21640,-0.7678,-0.4695,0.3486
21660,-0.8787,-0.4176,0.2526
21680,-0.7812,-0.4823,0.2877
21700,-0.8422,-0.4645,0.2465
21720,-0.8157,-0.4744,0.2997
21740,-0.8043,-0.4902,0.2526
21760,-0.8118,-0.454,0.2754
21780,-0.8345,-0.4515,0.2339
21800,-0.8652,-0.4287,0.2709
21820,-0.8591,-0.426,0.1899
21840,-0.8605,-0.4446,0.226
21860,-0.8616,-0.4554,0.1975
21880,-0.8511,-0.4337,0.229
21900,-0.9121,-0.4143,0.1718
21920,-0.882,-0.4208,0.2205
21940,-0.8832,-0.5122,0.1757
21960,-0.8558,-0.4713,0.194
21980,-0.9072,-0.4724,0.2161
22000,-0.8624,-0.4832,0.2047
22020,-0.8669,-0.3936,0.184
22040,-0.864,-0.3928,0.167
22060,-0.9108,-0.3843,0.1805
22080,-0.8812,-0.4084,0.1681
22100,-0.9686,-0.3209,0.1702
22120,-0.9119,-0.3749,0.1686
22140,-0.8955,-0.3409,0.1407
22160,-0.8931,-0.3645,0.1598
22180,-0.936,-0.3561,0.1361
22200,-0.9496,-0.3357,0.2124
22220,-0.9899,-0.2924,0.2419
22240,-0.9861,-0.2999,0.2271
22260,-0.9196,-0.3289,0.3148
22280,-0.9003,-0.2499,0.2686
22300,-0.9009,-0.2406,0.2466
22320,-0.9175,-0.2185,0.3276
22340,-0.7919,-0.1819,0.3116
22360,-0.9025,-0.0039,0.4081
22380,-0.8516,-0.0325,0.3729
22400,-0.8765,-0.0986,0.3718
22420,-0.8741,-0.0813,0.3824
22440,-0.8585,-0.2471,0.3754
22460,-0.7899,-0.5175,0.5251
22480,-1.0139,-0.7506,0.4943
22500,-0.8966,-0.3666,0.2964
22520,-0.7543,-0.3004,0.2723
22540,-0.7299,-0.4025,0.2334
22560,-0.8459,-0.4485,0.1499
22580,-0.8403,-0.5865,0.1752
22600,-0.8192,-0.5283,0.2405
22620,-0.7971,-0.5065,0.1885
22640,-0.8519,-0.4604,0.1962
22660,-0.8667,-0.5006,0.1907
22680,-0.8176,-0.4731,0.1992
22700,-0.8374,-0.4799,0.1816
22720,-0.8513,-0.5135,0.179
22740,-0.8395,-0.4945,0.1686
22760,-0.8251,-0.4913,0.1639
22780,-0.8419,-0.4646,0.1694
22800,-0.8762,-0.5034,0.2039
22820,-0.8284,-0.4684,0.1891
22840,-0.8649,-0.4518,0.1919
22860,-0.8431,-0.5001,0.1772
22880,-0.8362,-0.5115,0.1735
22900,-0.8376,-0.4968,0.2046
22920,-0.8572,-0.433,0.2002
22940,-0.8702,-0.4414,0.1842
22960,-0.854,-0.4788,0.1746
22980,-0.8328,-0.5031,0.1835
23000,-0.8396,-0.4812,0.2007
23020,-0.8549,-0.4642,0.1832
23040,-0.8484,-0.4907,0.1941
23060,-0.8407,-0.4961,0.1816
23080,-0.8257,-0.5179,0.1876
23100,-0.8361,-0.4998,0.1888
23120,-0.8318,-0.4974,0.215
23140,-0.8519,-0.5044,0.2139
23160,-0.822,-0.5006,0.2051
23180,-0.8163,-0.5201,0.1996
23200,-0.822,-0.519,0.2067
23220,-0.8083,-0.5314,0.2157
23240,-0.8009,-0.5282,0.2113
23260,-0.7996,-0.5454,0.2295
23280,-0.7939,-0.5504,0.2283
23300,-0.7939,-0.5575,0.2349
23320,-0.7675,-0.5861,0.2611
23340,-0.7811,-0.5753,0.2623
23360,-0.7762,-0.5509,0.2753
23380,-0.7908,-0.5294,0.2908
23400,-0.7751,-0.5381,0.2997
23420,-0.7616,-0.5189,0.2937
23440,-0.7487,-0.5341,0.3051
23460,-0.7471,-0.5201,0.3036
23480,-0.7733,-0.4771,0.3185
23500,-0.803,-0.4294,0.3378
23520,-0.8707,-0.4443,0.3887
23540,-0.8438,-0.3922,0.3499
23560,-0.8495,-0.3354,0.3988
23580,-0.8628,-0.3015,0.4064
23600,-0.8512,-0.2783,0.4137
23620,-0.8712,-0.2769,0.4294
23640,-0.8496,-0.2709,0.4182
23660,-0.8096,-0.2942,0.41
23680,-0.8136,-0.34,0.4303
23700,-0.8042,-0.3447,0.4336
23720,-0.8021,-0.3351,0.4259
23740,-0.8055,-0.3828,0.4254
23760,-0.811,-0.3975,0.4631
23780,-0.8296,-0.3654,0.4496
23800,-0.7889,-0.3978,0.4091
23820,-0.8268,-0.3738,0.4353
23840,-0.8053,-0.4183,0.4172
23860,-0.7887,-0.4775,0.4135
23880,-0.7656,-0.4446,0.3665
23900,-0.7684,-0.4576,0.3496
23920,-0.819,-0.4709,0.342
23940,-0.9043,-0.4336,0.3123
23960,-0.8077,-0.3872,0.3029
23980,-0.8527,-0.4174,0.3038
24000,-0.8619,-0.4382,0.2844
24020,-0.8385,-0.4358,0.2556
24040,-0.808,-0.4891,0.2683
24060,-0.8168,-0.4546,0.2421
24080,-0.8319,-0.474,0.2347
24100,-0.8286,-0.455,0.2328
24120,-0.8485,-0.4559,0.1985
24140,-0.8597,-0.4434,0.218
24160,-0.8779,-0.4421,0.197
24180,-0.8779,-0.4257,0.1876
24200,-0.8634,-0.4901,0.1658
24220,-0.8416,-0.4789,0.1842
24240,-0.8666,-0.4543,0.1635
24260,-0.8826,-0.4413,0.1694
24280,-0.8632,-0.4521,0.1602
24300,-0.8518,-0.4471,0.183
24320,-0.8973,-0.4073,0.1836
24340,-0.8896,-0.4578,0.1658
24360,-0.8623,-0.47,0.1605
24380,-0.8489,-0.4673,0.1801
24400,-0.8693,-0.4568,0.161
24420,-0.8574,-0.4915,0.1691
24440,-0.8422,-0.4943,0.1659
24460,-0.8529,-0.4744,0.1682
24480,-0.8595,-0.4718,0.1566
24500,-0.8407,-0.5076,0.1649
24520,-0.7998,-0.5438,0.1818
24540,-0.8258,-0.5063,0.2118
24560,-0.8242,-0.4885,0.2024
24580,-0.8333,-0.485,0.2047
24600,-0.8037,-0.5288,0.23
24620,-0.8049,-0.5087,0.2325
24640,-0.7919,-0.5291,0.2576
24660,-0.7604,-0.5309,0.2391
24680,-0.7532,-0.4791,0.2928
24700,-0.7839,-0.4343,0.3813
24720,-0.8529,-0.4177,0.4021
24740,-0.8833,-0.3815,0.4296
24760,-0.8746,-0.3132,0.4169
24780,-0.8679,-0.2489,0.4004
24800,-0.8024,-0.3141,0.4011
24820,-0.8192,-0.3232,0.4188
24840,-0.8131,-0.3544,0.4288
24860,-0.8256,-0.3527,0.4214
24880,-0.8315,-0.3557,0.41
24900,-0.8524,-0.3804,0.4219
24920,-0.7979,-0.4033,0.4238
24940,-0.8352,-0.4132,0.4193
24960,-0.8167,-0.4116,0.3839
24980,-0.8113,-0.4026,0.3433
25000,-0.8076,-0.4165,0.3331
25020,-0.7964,-0.454,0.3002
25040,-0.8263,-0.4841,0.2922
25060,-0.8571,-0.4667,0.2803
25080,-0.8291,-0.4386,0.2349
25100,-0.8436,-0.4471,0.2201
25120,-0.8323,-0.4753,0.2091
25140,-0.8264,-0.4977,0.1974
25160,-0.8357,-0.5005,0.2133
25180,-0.8324,-0.4954,0.1965
25200,-0.8335,-0.4801,0.1991
25220,-0.8671,-0.4507,0.2192
25240,-0.8768,-0.442,0.1927
25260,-0.8584,-0.4856,0.1766
25280,-0.8201,-0.5276,0.1754
25300,-0.8258,-0.4862,0.1843
25320,-0.8654,-0.4575,0.1729
25340,-0.8611,-0.4821,0.1626
25360,-0.8284,-0.5077,0.1588
25380,-0.8447,-0.4844,0.179
25400,-0.8625,-0.4601,0.1705
25420,-0.8568,-0.4854,0.1608
25440,-0.8451,-0.5004,0.161
25460,-0.8391,-0.5021,0.1624
25480,-0.844,-0.5052,0.1571
25500,-0.8416,-0.5046,0.1542
25520,-0.8441,-0.5171,0.1472
25540,-0.8328,-0.519,0.1625
25560,-0.8396,-0.5044,0.1694
25580,-0.8381,-0.5009,0.151
25600,-0.8312,-0.5181,0.1597
25620,-0.8353,-0.5089,0.1638
25640,-0.8292,-0.5142,0.1753
25660,-0.8207,-0.517,0.1688
25680,-0.8311,-0.5234,0.1796
25700,-0.8109,-0.5392,0.1886
25720,-0.7834,-0.5492,0.1797
25740,-0.797,-0.5261,0.2118
25760,-0.7893,-0.5394,0.2187
25780,-0.7721,-0.5582,0.2423
25800,-0.7908,-0.5537,0.2535
25820,-0.8037,-0.5613,0.2589
25840,-0.8018,-0.553,0.2848
25860,-0.7784,-0.5336,0.2854
25880,-0.7799,-0.5377,0.2806
25900,-0.7836,-0.5159,0.2742
25920,-0.7889,-0.5227,0.2863
25940,-0.7816,-0.512,0.2908
25960,-0.7913,-0.5052,0.2981
25980,-0.7931,-0.5007,0.3025
26000,-0.8011,-0.4878,0.3115
26020,-0.8118,-0.4604,0.3038
26040,-0.806,-0.4781,0.3073
26060,-0.7938,-0.4951,0.2992
26080,-0.7965,-0.5021,0.3022
26100,-0.7947,-0.5,0.3009
26120,-0.8099,-0.4825,0.3003
26140,-0.8027,-0.485,0.2921
26160,-0.8037,-0.4972,0.2841
26180,-0.796,-0.5045,0.2784
26200,-0.7949,-0.5011,0.27
26220,-0.7998,-0.4993,0.2661
26240,-0.7786,-0.505,0.2542
26260,-0.7451,-0.5186,0.2313
26280,-0.7333,-0.5403,0.2189
26300,-0.7563,-0.5819,0.2058
26320,-0.8079,-0.6158,0.2329
26340,-0.8602,-0.5956,0.2616
26360,-0.843,-0.5577,0.2496
26380,-0.7688,-0.5686,0.2253
26400,-0.7528,-0.5856,0.2045
26420,-0.7197,-0.577,0.1322
26440,-0.7539,-0.6021,0.1537
26460,-0.7861,-0.6025,0.1725
26480,-0.8123,-0.5767,0.1794
26500,-0.8005,-0.5886,0.1416
26520,-0.7784,-0.5851,0.1311
26540,-0.7572,-0.635,0.1182
26560,-0.7489,-0.6162,0.1018
26580,-0.775,-0.6293,0.1122
26600,-0.7775,-0.6283,0.1189
26620,-0.7871,-0.6016,0.1107
26640,-0.7937,-0.5807,0.1056
26660,-0.7913,-0.6051,0.1073
26680,-0.7863,-0.6013,0.1046
26700,-0.7819,-0.6067,0.0953
26720,-0.7875,-0.5978,0.0991
26740,-0.7899,-0.5951,0.0927
26760,-0.7933,-0.585,0.0909
26780,-0.7867,-0.6049,0.0996
26800,-0.7863,-0.5903,0.097
26820,-0.7897,-0.6012,0.1002
26840,-0.7893,-0.5912,0.1024
26860,-0.786,-0.6006,0.1111
26880,-0.7872,-0.5986,0.1113
26900,-0.783,-0.5983,0.1248
26920,-0.7871,-0.6,0.1442
26940,-0.7935,-0.5892,0.1628
26960,-0.7847,-0.5913,0.1764
26980,-0.7828,-0.566,0.1838
27000,-0.7678,-0.5663,0.1742
27020,-0.7806,-0.5848,0.1862
27040,-0.781,-0.5797,0.2095
27060,-0.7866,-0.5668,0.2272
27080,-0.7928,-0.5319,0.2291
27100,-0.7904,-0.5284,0.2334
27120,-0.79,-0.5381,0.2408
27140,-0.7933,-0.5413,0.25
27160,-0.8007,-0.527,0.261
27180,-0.8032,-0.5221,0.2646
27200,-0.7921,-0.5237,0.2682
27220,-0.7947,-0.5166,0.2679
27240,-0.8005,-0.4987,0.2584
27260,-0.8085,-0.4753,0.2545
27280,-0.8085,-0.5004,0.2551
27300,-0.8047,-0.5137,0.2598
27320,-0.7993,-0.512,0.2656
27340,-0.8085,-0.4926,0.2709
27360,-0.8104,-0.4906,0.2665
27380,-0.8153,-0.5168,0.2822
27400,-0.7972,-0.5198,0.2549
27420,-0.7943,-0.524,0.2681
27440,-0.7845,-0.5354,0.261
27460,-0.7903,-0.5094,0.2611
27480,-0.7819,-0.468,0.2081
27500,-0.7876,-0.4194,0.309
27520,-0.8337,-0.3997,0.3469
27540,-0.8424,-0.5289,0.3547
27560,-0.828,-0.4399,0.3589
27580,-0.8093,-0.4204,0.3586
27600,-0.8234,-0.4481,0.3831
27620,-0.8027,-0.4722,0.3486
27640,-0.8093,-0.4673,0.351
27660,-0.8151,-0.4487,0.3601
27680,-0.833,-0.4043,0.3525
27700,-0.8481,-0.4152,0.3434
27720,-0.8351,-0.4274,0.36
27740,-0.7878,-0.454,0.3284
27760,-0.7899,-0.4984,0.3114
27780,-0.7739,-0.4622,0.3048
27800,-0.8252,-0.3916,0.3154
27820,-0.8711,-0.3693,0.3334
27840,-0.8601,-0.395,0.3051
27860,-0.834,-0.4403,0.3099
27880,-0.8108,-0.4227,0.2965
27900,-0.8231,-0.4694,0.2839
27920,-0.8357,-0.4562,0.2782
27940,-0.8463,-0.4376,0.2651
27960,-0.8403,-0.4449,0.2544
